time,pos_x,pos_y,pos_z,vel_x,vel_y,vel_z,orient_x,orient_y,orient_z,accel_x,accel_y,accel_z,angvel_x,angvel_y,angvel_z,yaw,roll,pitch
0.0,1.4844392152388566,40.640308388448744,0.01,9.99987999943307,-0.048989763609248935,-0.005688123720830449,0.0,0.03259054474032054,-0.28069179218872653,0.0,0.0,0.0,0.0,0.0,9.993263467997253e-11,-0.28069179218872653,0.0,0.03259054474032054
0.04,1.8844344199461738,40.638349763828,0.009772603825388856,9.999880354077687,-0.04891731933691476,-0.005681291277048207,2.3610264628421367e-07,0.03255139773372296,-0.28027671210963967,1.7719110250239416e-05,0.0036222136634824257,0.00020034104544864792,1.1804990590630635e-05,-5.7833063844485154e-08,0.02075400049695724,-0.28027671210963967,2.3610264628421367e-07,0.03255139773372296
0.08,2.2844296529830745,40.63639693474923,0.00954552819645043,9.999881414862594,-0.04869998650591878,-0.005672096437194557,7.074571313761729e-07,0.03249871519900855,-0.27903147188037375,3.528077334175714e-05,0.007244428078010633,0.00025940094723387013,2.3581622201958562e-05,-1.1535635456531224e-07,0.04150800091010374,-0.27903147188037375,7.074571313761729e-07,0.03249871519900855
0.12,2.684424942427227,40.63445569675558,0.009318867609027576,9.999883172340965,-0.04833776507032286,-0.005660539201269498,1.1771869209474397e-06,0.03243249713613501,-0.2769560715009288,5.2527542231986864e-05,0.010866644018106778,0.00031846084901909224,3.5315188811064226e-05,-1.7198696136502475e-07,0.06226200134768773,-0.2769560715009288,1.1771869209474397e-06,0.03243249713613501
0.16,3.0844203158524675,40.63253184539266,0.009092716558963154,9.999885610768086,-0.04783065495432387,-0.00564661956927303,1.6447036650537266e-06,0.03235274354504934,-0.2740505109713047,6.930196968308518e-05,0.014488862218039137,0.00037752075080431456,4.699098427124579e-05,-2.27146569512869e-07,0.08301600181797078,-0.2740505109713047,1.6447036650537266e-06,0.03235274354504934
0.2,3.484415800076888,40.63063117620968,0.008867169542100019,9.999888708101356,-0.047178656053394316,-0.005630337541205153,2.109419013746613e-06,0.03225945442568796,-0.2703147902915015,8.544660829535382e-05,0.018111083377857128,0.0004365806525895367,5.85943023221338e-05,-2.802635915796294e-07,0.10377000232914287,-0.2703147902915015,2.109419013746613e-06,0.03225945442568796
0.24,3.8844114209109173,40.6287594847606,0.008642321054281027,9.999892436000264,-0.04638176823587915,-0.005611693117065867,2.5707446170730432e-06,0.03215262977797682,-0.2657489094615193,0.00010080401045868662,0.021733308151985008,0.000495640554374759,7.011043654383573e-05,-3.3077529840659375e-07,0.12452400288930522,-0.2657489094615193,2.5707446170730432e-06,0.03215262977797682
0.28,4.284407202905404,40.62692256660512,0.008418265591349035,9.9998967598264,-0.04543999134504906,-0.005590686296855172,3.0280921250745706e-06,0.03203226960183156,-0.26035286848135797,0.0001152167283086441,0.02535553713781556,0.0005547004561599812,8.152468031232155e-05,-3.781299500920091e-07,0.1452780035064528,-0.26035286848135797,3.0280921250745706e-06,0.03203226960183156
0.32,4.684403169099706,40.625126217309685,0.0081950976491469,9.999901638643431,-0.044353325201609665,-0.005567317080573068,3.480873187786472e-06,0.03189837389715771,-0.2541266673510175,0.00012852731368831222,0.0289777708643037,0.0006137603579452033,9.282232675637432e-05,-4.2178892699990105e-07,0.16603200418845704,-0.2541266673510175,3.480873187786472e-06,0.03189837389715771
0.36,5.0843993407697665,40.62337623244834,0.007972911723517476,9.999907025217084,-0.043121769606667304,-0.005541585468219556,3.928499455237312e-06,0.031750942663850874,-0.2470703060704981,0.00014057831811710244,0.03260000978056013,0.0006728202597304255,0.00010398866871643057,-4.6122886079587354e-07,0.18678600494304828,-0.2470703060704981,3.928499455237312e-06,0.031750942663850874
0.4,5.484395737176197,40.62167840760337,0.007751802310303622,9.99991286601515,-0.041745324345150846,-0.0055134914597946335,4.37038257744842e-06,0.03158997590179695,-0.2391837846397995,0.00015121229276764974,0.036222254244444925,0.0007318801615156476,0.00011500899870563452,-4.959437655141807e-07,0.20754000577779866,-0.2391837846397995,4.37038257744842e-06,0.03158997590179695
0.44,5.884392375312366,40.62003853836597,0.007531863905348191,9.999919101207453,-0.04022398918968993,-0.005483035055298303,4.805934204432709e-06,0.0314154736108724,-0.23046710305892193,0.00016027178845196588,0.03984450451116105,0.0007909400633008698,0.0001258686088734302,-5.254471686599908e-07,0.2282940067001045,-0.23046710305892193,4.805934204432709e-06,0.0314154736108724
0.48,6.284389269652472,40.618462420336584,0.007313191004494042,9.999925664665845,-0.038557763904949256,-0.005450216254730564,5.234565986195117e-06,0.031227435790944478,-0.2209202613278652,0.00016759935561800376,0.04346676072184791,0.0008499999650860921,0.00013655279097201628,-5.492742423503356e-07,0.24904800771716915,-0.2209202613278652,5.234565986195117e-06,0.031227435790944478
0.52,6.684386431899632,40.61695584912515,0.007095878103584032,9.99993248396419,-0.03674664825241939,-0.005415035058091416,5.655689572730832e-06,0.031025862441871572,-0.21054325944662944,0.00017303754435779153,0.04708902289217485,0.0009090598668713142,0.00014704683632598778,-5.669839344967383e-07,0.26980200883598543,-0.21054325944662944,5.655689572730832e-06,0.031025862441871572
0.56,7.0843838707339515,40.61552462035112,0.006880019698461014,9.999939480378345,-0.0347906419956636,-0.00537749146538086,6.068716614026017e-06,0.030810753563503494,-0.19933609741521457,0.00017642890442829128,0.050711290900934576,0.0009681197686565363,0.0001573360358054882,-5.781611000319871e-07,0.29055601006331827,-0.19933609741521457,6.068716614026017e-06,0.030810753563503494
0.6,7.484381591560615,40.61417452964327,0.006665710284967848,9.999946568886154,-0.03268974490602109,-0.005337585476598893,6.473058760056614e-06,0.030582109155681797,-0.1872987752336206,0.00017761598528614106,0.05433356447863663,0.0010271796704417588,0.00016740567980319822,-5.824186321829026e-07,0.3113100114056873,-0.1872987752336206,6.473058760056614e-06,0.030582109155681797
0.64,7.8843795962579595,40.61291137263928,0.006453044358947388,9.999953658167435,-0.03044395676876646,-0.005295317091745518,6.868127660788201e-06,0.03033992921824017,-0.17443129290184753,0.00017644133613743576,0.057955843196100816,0.001086239572226981,0.00017724105821548296,-5.79399593790303e-07,0.3320640128693499,-0.17443129290184753,6.868127660788201e-06,0.03033992921824017
0.68,8.284377882925545,40.61174094498501,0.006242116416242492,9.999960650603967,-0.028053277389725427,-0.005250686310820735,7.253334966175693e-06,0.030084213751004816,-0.1607336504198954,0.00017274750600370438,0.061578126453050545,0.0011452994740122032,0.00018682746042802422,-5.68779348676654e-07,0.35281801446028316,-0.1607336504198954,7.253334966175693e-06,0.030084213751004816
0.72,8.684376445632262,40.61066904233356,0.006033020952696014,9.999967442279488,-0.025517706602346812,-0.005203693133824542,7.628092326163042e-06,0.02981496275379483,-0.14620584778776421,0.00016637704380524068,0.06520041346670635,0.0012043593757974256,0.00019615017530626058,-5.502676930611178e-07,0.3735720161841671,-0.14620584778776421,7.628092326163042e-06,0.02981496275379483
0.76,9.084375274164367,40.609701460344034,0.005825852464150813,9.999973922979695,-0.022837244275230772,-0.005154337560756941,7.991811390683107e-06,0.029532176226422655,-0.130847885005454,0.00015717249846294355,0.06882270326037922,0.0012634192775826478,0.0002051944911909605,-5.236109870208941e-07,0.3943260180463667,-0.130847885005454,7.991811390683107e-06,0.029532176226422655
0.8,9.484374353773601,40.60884399467994,0.0056207054464497445,9.999979976192243,-0.02001189032011333,-0.00510261959161793,8.343903809657415e-06,0.029235854168694536,-0.11465976207296462,0.0001449764190198247,0.07244499465206408,0.00132247917936787,0.00021394569589925256,-4.885942859968587e-07,0.41508002005191513,-0.11465976207296462,8.343903809657415e-06,0.029235854168694536
0.84,9.884373664925239,40.60810244100731,0.005417674395435664,9.999985479106751,-0.017041644700307123,-0.005048539226407511,8.683781232996081e-06,0.028925996580410958,-0.09764147899029615,0.0001296313547833398,0.07606728624303331,0.0013815390811530923,0.00022238907673143718,-4.450434723405722e-07,0.43583402220549616,-0.09764147899029615,8.683781232996081e-06,0.028925996580410958
0.88,10.284373183046187,40.60748259499249,0.005216853806951429,9.999990302614826,-0.013926507439598492,-0.004992096465125683,9.01085531059784e-06,0.028602603461367185,-0.07979303575744866,0.00011097985548970091,0.07968957640643026,0.0014405989829383145,0.0002305099204839043,-3.928273868987294e-07,0.4565880245114266,-0.07979303575744866,9.01085531059784e-06,0.028602603461367185
0.92,10.684372878273052,40.606990252299475,0.005018338176839894,9.999994311310061,-0.010666478631600688,-0.004933291307772446,9.324537692350243e-06,0.028265674811353732,-0.06111443237442204,8.886447149132556e-05,0.08331186327586299,0.001499658884723537,0.00023829351346848056,-3.31859960630072e-07,0.47734202697363887,-0.06111443237442204,9.324537692350243e-06,0.028265674811353732
0.96,11.084372715200232,40.60663120858699,0.004822222000943918,9.999997363488097,-0.007261558449563487,-0.004872123754347799,9.62424002812956e-06,0.02791521063015697,-0.04160566884121638,6.312775396858122e-05,0.08693414473399788,0.0015587187865087591,0.000245725141538532,-2.621023462486787e-07,0.49809602959566396,-0.04160566884121638,9.62424002812956e-06,0.02791521063015697
1.0,11.484372652627973,40.60641125950504,0.0046285997751063564,9.99999931114663,-0.0037117471566389254,-0.004808593804851745,9.909373967801222e-06,0.027551210917559632,-0.021266745157831717,3.361225516698025e-05,0.0905564184011537,0.001617778688293981,0.00025279009012214583,-1.8356504988638222e-07,0.5188500323806142,-0.021266745157831717,9.909373967801222e-06,0.027551210917559632
1.04,11.884372643310497,40.60633620069114,0.004437565995170064,9.999999999985473,-1.704511660331275e-05,-0.004742701459284281,1.0179351161220166e-05,0.027173675673341426,-9.76613242678659e-05,1.6052866098279005e-07,0.09417868162389562,0.0016768385900792033,0.0002594736442627137,-9.63100627658379e-08,0.5396040353311654,-9.76613242678659e-05,1.0179351161220166e-05,0.027173675673341426
1.08,12.284372633704042,40.60641182776605,0.004249215156977899,9.99999926940662,0.003822547194964445,-0.004674446717645409,1.0433583258230931e-05,0.026782604897279634,0.02190158265947513,-3.738487035443457e-05,0.09780093146362948,0.0017358984918644255,0.0002657610886672447,-4.5299287449631053e-10,0.5603580384495395,0.02190158265947513,1.0433583258230931e-05,0.026782604897279634
1.12,12.68437256371498,40.60664393632909,0.004063641756372717,9.999996952514305,0.007807029179048372,-0.004603829579935127,1.0671481908668407e-05,0.026377998589149753,0.044730986793397064,-7.918138474328942e-05,0.10142316468519641,0.0017949583936496477,0.0002716377077627293,1.0383480337160126e-07,0.5811120417374871,0.044730986793397064,1.0671481908668407e-05,0.026377998589149753
1.16,13.084372366447894,40.60703832195295,0.0038809402891973738,9.999992876115094,0.011936400101104822,-0.0045308500461534364,1.0892458762358626e-05,0.025959856748726147,0.06839055107749813,-0.00012538645507802692,0.10504537774546767,0.0018540182954348702,0.0002770887857608799,2.163240894866841e-07,0.6018660451962715,0.06839055107749813,1.0892458762358626e-05,0.025959856748726147
1.2,13.484371967953681,40.60760078017799,0.0037012052512947263,9.99998686071798,0.01621065907851549,-0.004455508116300338,1.109592546911902e-05,0.02552817937578273,0.09288027551177835,-0.0001761575192577165,0.10866756678193971,0.0019130781972200922,0.0002820996067315715,3.367256173106903e-07,0.6226200488266488,0.09288027551177835,1.109592546911902e-05,0.02552817937578273
1.24,13.884371286977647,40.60833710650613,0.0035245311385076325,9.999978720534502,0.020629805067584328,-0.0043778037903758294,1.1281293678759333e-05,0.02508296647009365,0.11820016009623753,-0.00023165201209385787,0.11228972760132994,0.0019721380990053144,0.0002866554546853084,4.646879954567005e-07,0.6433740526288528,0.11820016009623753,1.1281293678759333e-05,0.02508296647009365
1.28,14.284370234707612,40.60925309639406,0.003351012446678946,9.999968263478877,0.025193836850078404,-0.004297737068379912,1.1447975041082952e-05,0.02462421803143403,0.14435020483087588,-0.0002920273648626411,0.11591185566817266,0.002031198000790537,0.0002907416136650391,5.997955578273548e-07,0.6641280566025765,0.14435020483087588,1.1447975041082952e-05,0.02462421803143403
1.32,14.684368714522021,40.61035454524605,0.003180743671651524,9.999955291168149,0.029902753019312382,-0.004215307950312586,1.1595381205887232e-05,0.024151934059580705,0.1713304097156933,-0.0003574410048224989,0.11953394609341562,0.002090257902575759,0.0002943433678476453,7.415662322188583e-07,0.6848820607469549,0.1713304097156933,1.1595381205887232e-05,0.024151934059580705
1.36,15.084366621738065,40.611647248406065,0.003013819309268225,9.999939598922358,0.034756551965777066,-0.004130516436173851,1.1722923822965111e-05,0.02366611455431298,0.19914077475068973,-0.0004280503546958011,0.1231559936230171,0.002149317804360981,0.00029744600165542865,8.894494090328334e-07,0.7056360650605475,0.19914077475068973,1.1722923822965111e-05,0.02366611455431298
1.4000000000000001,15.484363843359786,40.61313700114941,0.002850333855371901,9.999920975764736,0.03975523186231177,-0.0040433625259637075,1.1830014542106245e-05,0.023166759515413447,0.2277812999358653,-0.0005040128321135317,0.12677799262654366,0.0022083777061462037,0.00030003479987791897,1.0428238101180336e-06,0.7263900695413216,0.2277812999358653,1.1830014542106245e-05,0.023166759515413447
1.44,15.88436025782624,40.614829598673694,0.0026903818058054115,9.999899204421926,0.04489879064882064,-0.003953846219682155,1.1916065013098306e-05,0.022653868942668777,0.25725198527121995,-0.0005854858490217925,0.13039993708576886,0.002267437607931426,0.00030209504780432994,1.2009953577656998e-06,0.747144074186634,0.25725198527121995,1.1916065013098306e-05,0.022653868942668777
1.48,16.284355734759608,40.61673083608919,0.0025340576564116144,9.999874061324212,0.05018722601653282,-0.003861967517329193,1.1980486885728372e-05,0.02212744283587054,0.2875528307567537,-0.0006726268110489774,0.13402182058327214,0.002326497509716648,0.0003036120313669831,1.3631950438841815e-06,0.767898078993214,0.2875528307567537,1.1980486885728372e-05,0.02212744283587054
1.52,16.68435013471337,40.61884650840857,0.002381455903033362,9.99984531660579,0.05562053539180683,-0.0037677264189048226,1.2022691809784878e-05,0.021587481194816124,0.31868383639246656,-0.0007655931168324635,0.1376436362910393,0.0023855574115018703,0.0003045710372960283,1.5285767993803575e-06,0.7886520839571467,0.31868383639246656,1.2022691809784878e-05,0.021587481194816124
1.56,17.084343308920438,40.62118241053603,0.0022326710415135126,9.999812734105065,0.061198715919478675,-0.0036711229244090434,1.2042091435058783e-05,0.02103398401930955,0.3506450021783583,-0.0008645421573036582,0.14126537695906333,0.0024446173132870925,0.0003049573532857814,1.6962153637773322e-06,0.8094060890738544,0.3506450021783583,1.2042091435058783e-05,0.02103398401930955
1.6,17.484335099041378,40.62374433725559,0.002087797567694923,9.999776071364971,0.06692176444575437,-0.003572157033841856,1.2038097411346292e-05,0.020466951309162408,0.3834363281144293,-0.0009696313149302567,0.14488703490394703,0.002503677215072315,0.00030475626817300485,1.8651041550998934e-06,0.83016009433808,0.3834363281144293,1.2038097411346292e-05,0.020466951309162408
1.6400000000000001,17.884325336912546,40.62653808321888,0.0019469299774204484,9.999735079633327,0.07278967750064623,-0.0034708287472032576,1.2010121388449912e-05,0.019886383064194785,0.41705781420067956,-0.0010810179629145394,0.1485086019975059,0.0025627371168575374,0.00030395307212745427,2.034153140061298e-06,0.8509140997438697,0.41705781420067956,1.2010121388449912e-05,0.019886383064194785
1.68,18.284313844294328,40.62956944293212,0.0018101627665329488,9.99968950386322,0.07880245127995344,-0.0033671380644932523,1.1957575016181042e-05,0.019292279284236213,0.45150946043710843,-0.001198859464346568,0.15213006965537304,0.002621797018642759,0.0003025330568550159,2.202186704587054e-06,0.8716681052845549,0.45150946043710843,1.1957575016181042e-05,0.019292279284236213
1.72,18.68430043261934,40.63284421074235,0.0016775904308752743,9.999639082713434,0.08496008162678717,-0.003261084985711837,1.1879869944362945e-05,0.018684639969126615,0.4867912668237169,-0.0013233131713111222,0.15575142882560525,0.002680856920427982,0.0003004815158137577,2.367941524713574e-06,0.892422110952736,0.4867912668237169,1.1879869944362945e-05,0.018684639969126615
1.76,19.08428490274067,40.63636818082296,0.0015493074662902857,9.999583548548902,0.09126256401263917,-0.003152669510859013,1.1776417822831369e-05,0.018063465118717356,0.5229032333605039,-0.0014545364239472087,0.15937266997729016,0.0027399168222132036,0.00029778374444321755,2.5300644379017858e-06,0.9131761167402638,0.5229032333605039,1.1776417822831369e-05,0.018063465118717356
1.8,19.48426704468014,40.640147147158466,0.0014254083686208383,9.999522627441207,0.09770989351799578,-0.00304189163993478,1.1646630301439639e-05,0.017428754732872195,0.5598453600474704,-0.001592686549459018,0.16299378308915577,0.002798976723998426,0.0002944250404072546,2.687110314808081e-06,0.9339301226382226,0.5598453600474704,1.1646630301439639e-05,0.017428754732872195
1.84,19.884246637376574,40.64418690352845,0.0013059876337097893,9.999456039169123,0.10430206481249517,-0.002928751372939139,1.1489919030058757e-05,0.01678050881146837,0.5976176468846157,-0.0017379208610771328,0.16661475763818107,0.0028580366257836484,0.0002903907038507829,2.837539931557365e-06,0.9546841286369134,0.5976176468846157,1.1489919030058757e-05,0.01678050881146837
1.8800000000000001,20.284223448434098,40.648493243490705,0.0011911397573999925,9.99938349721919,0.11103907213463013,-0.002813248709872088,1.1305695658582784e-05,0.016118727354397643,0.6362200938719405,-0.0018903966569688803,0.17023558258820917,0.0029170965275688706,0.0002856660376707151,2.9797178425653036e-06,0.975438134725836,0.6362200938719405,1.1305695658582784e-05,0.016118727354397643
1.92,20.684197233870467,40.65307196036362,0.0010809592355343067,9.999304708786342,0.11792090927099443,-0.0026953836507336293,1.1093371836929549e-05,0.015443410361567387,0.6756527010094439,-0.0020502712190966286,0.1738562463785617,0.002976156429354093,0.00028023634780143707,3.111910253959427e-06,0.9961921408936709,0.6756527010094439,1.1093371836929549e-05,0.015443410361567387
1.96,21.08416773786542,40.657928847207636,0.0009755405639555875,9.999219374774578,0.12494756953507485,-0.0025751561955237603,1.0852359215046265e-05,0.014754557832901702,0.7159154682971267,-0.0022177018120229223,0.17747673691265614,0.003035216331139315,0.000274086943515137,3.232282897651144e-06,1.0169461471282637,0.7159154682971267,1.0852359215046265e-05,0.014754557832901702
2.0,21.484134692509024,40.66306969680594,0.0008749782385066938,9.999127189797681,0.1321190457455868,-0.0024525663442424846,1.0582069442910557e-05,0.01405216976834255,0.757008395734988,-0.002392845681661251,0.18109704154662498,0.0030942762329245364,0.00026720313773731156,3.3388989061134164e-06,1.0377001534166053,0.757008395734988,1.0582069442910557e-05,0.01405216976834255
2.04,21.884097817550145,40.66850030164417,0.0007793667550304757,9.999027842179999,0.13943533020435608,-0.002327614096889798,1.0281914170536244e-05,0.013336246167850861,0.7989314833230289,-0.002575860053971358,0.18471714707793793,0.0031533361347097595,0.0002595702473777742,3.4297166879213724e-06,1.058454159744818,0.7989314833230289,1.0281914170536244e-05,0.013336246167850861
2.08,22.284056820144823,40.67422645388935,0.000688800609369794,9.998921013957256,0.14689641467374398,-0.0022002994534657027,9.95130504797518e-06,0.012606787031407777,0.841684731061249,-0.002766902133597867,0.188337039734026,0.0032123960364949813,0.00025117359367748384,3.5025878041158736e-06,1.079208166098134,0.841684731061249,9.95130504797518e-06,0.012606787031407777
2.12,22.684011394604756,40.6802539453678,0.0006033742973675042,9.998806380877443,0.15450229035361893,-0.0020706224139702,9.589653725322426e-06,0.011863792359015822,0.885268138949648,-0.002966129102451147,0.1919567051609092,0.0032714559382802043,0.00024199850257152153,3.555254845452796e-06,1.0999621724608812,0.885268138949648,9.589653725322426e-06,0.011863792359015822
2.16,23.08396122214586,40.68658856754223,0.0005231823148664633,9.998683612401756,0.1622529478578723,-0.001938582978403287,9.196371852719797e-06,0.011107262150700098,0.9296817069882257,-0.003173698118229213,0.1955761284118271,0.0033305158400654257,0.00023203030506853414,3.5853493106035615e-06,1.1207161788164643,0.9296817069882257,9.196371852719797e-06,0.011107262150700098
2.2,23.483905970636755,40.69323611148776,0.00044831915770952684,9.998552371705587,0.17014837719048037,-0.001804181146764965,8.770871080360706e-06,0.010337196406509569,0.9749254351769834,-0.003389766312879539,0.19919529393587238,0.0033895757418506483,0.00022125433764696748,3.5903894853752905e-06,1.1414701851473485,0.9749254351769834,8.770871080360706e-06,0.010337196406509569
2.24,23.88384529434738,40.70020236786707,0.0003788793217395503,9.9984123156796,0.1781885677211103,-0.0016674169190552348,8.31256305849335e-06,0.009553595126518304,1.0209993235159196,-0.0036144907909995993,0.20281418556662784,0.0034486356436358705,0.00020965594266841162,3.5677783230219227e-06,1.1622241914350404,1.0209993235159196,8.31256305849335e-06,0.009553595126518304
2.2800000000000002,24.28377883369761,40.70749312690453,0.0003149573027993926,9.99826309493084,0.18637350816027323,-0.0015282902952740954,7.820859437427248e-06,0.008756458310826781,1.0679033720050346,-0.0038480286281750457,0.20643278651080746,0.003507695545421092,0.00019722046880838064,3.5148013257205415e-06,1.1829781976600722,1.0679033720050346,7.820859437427248e-06,0.008756458310826781
2.32,24.68370621500599,40.715114178359336,0.00025664759673190915,9.998104353783946,0.19470318653402238,-0.001386801275421548,7.2951718675365595e-06,0.007945785959563181,1.115637580644329,-0.004090536869254322,0.21005107933690106,0.003566755447206315,0.00018393327150484573,3.428624427290212e-06,1.203732203801984,1.115637580644329,7.2951718675365595e-06,0.007945785959563181
2.36,25.08362705023839,40.723071311497584,0.00020404469937995544,9.997935730282402,0.2031775901581968,-0.00124294985949759,6.734911999265866e-06,0.007121578072884724,1.1642019494338027,-0.0043421725265585685,0.2136690459638229,0.003625815348991538,0.00016977971342484543,3.3062918772336783e-06,1.224486209839306,1.1642019494338027,6.734911999265866e-06,0.007121578072884724
2.4,25.483540936756828,40.731370315063394,0.0001572431065863869,9.997756856189884,0.21179670561221134,-0.0010967360475022231,6.139491483135013e-06,0.00628383465097906,1.213596478373455,-0.00460309257802571,0.21728666764956495,0.0036848752507767603,0.00015474516494949208,3.1447241261854344e-06,1.2452402157495415,1.213596478373455,6.139491483135013e-06,0.00628383465097906
2.44,25.883447457068296,40.740016977248864,0.00011633731419406247,9.997567356991667,0.22056051871239313,-0.0009481598394354485,5.508321969745313e-06,0.0054325556940656135,1.2638211674632869,-0.004873453965287536,0.22090392497985442,0.0037439351525619816,0.00013881500467769682,2.940715712852849e-06,1.2659942215091498,1.2638211674632869,5.508321969745313e-06,0.0054325556940656135
2.48,26.283346178573655,40.74901708566305,8.142181804583759e-05,9.99736685189612,0.22946901448486412,-0.0007972212352972655,4.840815109784344e-06,0.004567741202396987,1.3148760167032973,-0.00515341359167865,0.2245207978568164,0.003802995054347204,0.00012197461994893146,2.690933152540276e-06,1.2867482270935264,1.3148760167032973,4.840815109784344e-06,0.004567741202396987
2.52,26.68323665331659,40.75837642729977,5.2591113984567714e-05,9.997154953836285,0.23852217713797047,-0.0006439202350876723,4.1363825540325014e-06,0.003689391176260393,1.3667610260934868,-0.005443128320176139,0.22813726548764168,0.003862054956132425,0.00010420940738534764,2.3919128273493426e-06,1.3075022324769903,1.3667610260934868,4.1363825540325014e-06,0.003689391176260393
2.56,27.083118417732614,40.768100788504384,2.9939697853108294e-05,9.996931269471519,0.24771999003425837,-0.00048825683880667,3.3944359533687833e-06,0.002797505615979119,1.4194761956338564,-0.005742754971268812,0.2317533063732592,0.003921114857917648,8.55047734535743e-05,2.0400588781520524e-06,1.3282562376327633,1.4194761956338564,3.3944359533687833e-06,0.002797505615979119
2.6,27.48299099239819,40.778195954939335,1.3562065494318251e-05,9.99669539918925,0.25706243566199705,-0.00033023104645425977,2.614386958776965e-06,0.0018920845219139826,1.473021525324404,-0.006052450320754851,0.23536889829701493,0.003980174759702871,6.584613504651135e-05,1.6316410984366524e-06,1.3490102425329513,1.473021525324404,2.614386958776965e-06,0.0018920845219139826
2.64,27.882853881779866,40.78866771154864,3.5527127510530387e-06,9.996446937106807,0.26654949560624963,-0.00016984285803044153,1.7956472213528397e-06,0.0009731278944648206,1.5273970151651306,-0.006372371097466802,0.23898401831335667,0.004039234661488093,4.52189200854383e-05,1.1627928301297154e-06,1.3697642471485318,1.5273970151651306,1.7956472213528397e-06,0.0009731278944648206
2.68,28.282706573983507,40.79952184252118,6.13546616810845e-09,9.996185471073339,0.27618115051949066,-7.092273535212051e-06,9.37628392310217e-07,4.0635734071991046e-05,1.5826026651560372,-0.006702673980922639,0.24259864273652448,0.004098294563273315,2.360856814275632e-05,6.295088615014207e-07,1.3905182514493315,1.5826026651560372,9.37628392310217e-07,4.0635734071991046e-05
2.72,28.682549047758172,40.810746226101166,0.0,9.995950636972958,0.28455379667104624,0.0,3.403623914741373e-08,0.0,1.6305932607784328,-0.004920845346221775,0.17286196054475617,0.0,7.024537682906386e-07,1.9407852172677725e-08,0.9908272997002585,1.6305932607784328,3.403623914741373e-08,0.0
2.7600000000000002,29.082383668437764,40.82224718772732,0.0,9.995793903869872,0.2900072953529217,0.0,0.0,0.0,1.6618524087395166,-0.002895883498289099,0.09981353946040966,0.0,0.0,0.0,0.5721300983536589,1.6618524087395166,0.0,0.0
2.8000000000000003,29.48221366737426,40.833907851352514,0.0,9.995720133344712,0.29253891338961435,0.0,0.0,0.0,1.6763636686467258,-0.0007833926573657195,0.026767631241987576,0.0,0.0,0.0,0.15343289700681378,1.6763636686467258,0.0,0.0
2.84,29.882042416012247,40.845611343279096,0.0,9.995731545431411,0.29214871498492295,0.0,0.0,0.0,1.6741270405000617,0.0013525712766786747,-0.04627759317181729,0.0,0.0,0.0,-0.2652643043400311,1.6741270405000617,0.0,0.0
2.88,30.281873323353384,40.857240790898935,0.0,9.995827797956741,0.2888366901819946,0.0,0.0,0.0,1.6551425242995235,0.00344795339540471,-0.11932399714914824,0.0,0.0,0.0,-0.6839615056868797,1.6551425242995235,0.0,0.0
2.92,30.68170973346819,40.8686793197245,0.0,9.99600598652587,0.28260275536342444,0.0,0.0,0.0,1.6194101200451108,0.005438697081729238,-0.19237338474620694,0.0,0.0,0.0,-1.1026587070337288,1.6194101200451108,0.0,0.0
2.96,31.08155482300512,40.87981005051486,0.0,9.996260644401728,0.2734467574961575,0.0,0.0,0.0,1.5669298277368247,0.007260741431213128,-0.26542740708502555,0.0,0.0,0.0,-1.5213559083805739,1.5669298277368247,0.0,0.0
3.0,31.48141149869283,40.89051609664637,0.0,9.99658374228684,0.26136848212143543,0.0,0.0,0.0,1.4977016473746656,0.008850018986278862,-0.3384874687226471,0.0,0.0,0.0,-1.9400531097274185,1.4977016473746656,0.0,0.0
3.04,31.88128229483197,40.90068056187789,0.0,9.99696468802396,0.24636766509022123,0.0,0.0,0.0,1.4117255789586314,0.0101424539749479,-0.41155463400739467,0.0,0.0,0.0,-2.358750311074267,1.4117255789586314,0.0,0.0
3.08,32.28116927077384,40.910186538660255,0.0,9.997390326239566,0.22844400804468534,0.0,0.0,0.0,1.309001622488723,0.01107396124572051,-0.4846295334192449,0.0,0.0,0.0,-2.7774475124211166,1.309001622488723,0.0,0.0
3.12,32.6810739083841,40.918917107140075,0.0,9.997844937961847,0.20759719764641596,0.0,0.0,0.0,1.1895297779649419,0.011580446090259334,-0.5577122698931491,0.0,0.0,0.0,-3.196144713767961,1.1895297779649419,0.0,0.0
3.16,33.08099700949138,40.926755335007456,0.0,9.998310240252556,0.1838269285520228,0.0,0.0,0.0,1.053310045387287,0.011597805145576918,-0.6308023251264809,0.0,0.0,0.0,-3.6148419151148055,1.053310045387287,0.0,0.0
3.2,33.480938593322165,40.93358427833785,0.0,9.998765385899734,0.1571329301366995,0.0,0.0,0.0,0.9003424247557589,0.011061928567459274,-0.7038984658746238,0.0,0.0,0.0,-4.03353911646165,0.9003424247557589,0.0,0.0
3.24,33.880897793925534,40.939286983577674,0.0,9.999186963225998,0.12751499696608162,0.0,0.0,0.0,0.7306269160703531,0.009908703666873069,-0.776998650242068,0.0,0.0,0.0,-4.452236317808503,0.7306269160703531,0.0,0.0
3.2800000000000002,34.280872757593556,40.943746490823884,0.0,9.99954899607473,0.09497302301637403,0.0,0.0,0.0,0.5441635193310765,0.008074020201092505,-0.8500999339802217,0.0,0.0,0.0,-4.870933519155349,0.5441635193310765,0.0,0.0
3.3200000000000003,34.68086054028589,40.946845838547254,0.0,9.999822944044212,0.059507039642174145,0.0,0.0,0.0,0.34095223453792656,0.005493777511230383,-0.9231983768075164,0.0,0.0,0.0,-5.289630720502194,0.34095223453792656,0.0,0.0
3.36,35.080857005069895,40.948468069909296,0.0,9.999977703047367,0.02111725729071779,0.0,0.0,0.0,0.12099306169089853,0.002103893697753966,-0.9962889487722113,0.0,0.0,0.0,-5.708327921849046,0.12099306169089853,0.0,0.0
3.4,35.48085671959113,40.94849624082266,0.0,9.9999796062825,-0.020195889039659635,0.0,0.0,0.0,-0.11571399920999917,-0.0021596829746075353,-1.0693654366836851,0.0,0.0,0.0,-6.1270251231958905,-0.11571399920999917,0.0,0.0
3.44,35.88085285359247,40.94681342990472,0.0,9.999792425707966,-0.06443169060020831,0.0,0.0,0.0,-0.3691689481647707,-0.007360960251418089,-1.1424203506438806,0.0,0.0,0.0,-6.545722324542735,-0.3691689481647707,0.0,0.0
3.48,36.280837076503815,40.943302750473855,0.0,9.99937737412149,-0.1115891119563242,0.0,0.0,0.0,-0.6393717851734165,-0.013563885451769717,-1.215444830716883,0.0,0.0,0.0,-6.964419525889581,-0.6393717851734165,0.0,0.0
3.52,36.68079945512902,40.937847364737735,0.0,9.998693107952336,-0.16166673432239503,0.0,0.0,0.0,-0.9263225102359355,-0.020832326229907158,-1.2884285537815368,0.0,0.0,0.0,-7.383116727236426,-0.9263225102359355,0.0,0.0
3.56,37.08072835146058,40.93033050032273,0.0,9.997695730882196,-0.21466269517527062,0.0,0.0,0.0,-1.2300211233523342,-0.02923004834558986,-1.3613596406193331,0.0,0.0,0.0,-7.80181392858328,-1.2300211233523342,0.0,0.0
3.6,37.48061032065775,40.92063546929302,0.0,9.996338798418265,-0.27057462415693573,0.0,0.0,0.0,-1.5504676245226008,-0.03882069025434737,-1.4342245632976627,0.0,0.0,0.0,-8.220511129930124,-1.5504676245226008,0.0,0.0
3.64,37.880430009228995,40.90864568980755,0.0,9.994573323549417,-0.3293995752795582,0.0,0.0,0.0,-1.8876620137467413,-0.04966773432979449,-1.507008052916908,0.0,0.0,0.0,-8.639208331276969,-1.8876620137467413,0.0,0.0
3.68,38.280170053464325,40.89424471056256,0.0,9.99234778362397,-0.39113395544896096,0.0,0.0,0.0,-2.241604291024762,-0.06183447453139624,-1.579693007798644,0.0,0.0,0.0,-9.057905532623822,-2.241604291024762,0.0,0.0
3.72,38.6798109781699,40.87731623816639,0.0,9.989608128594915,-0.45577344932587055,0.0,0.0,0.0,-2.61229445635665,-0.07538398033255815,-1.652260402201575,0.0,0.0,0.0,-9.476602733970667,-2.61229445635665,0.0,0.0
3.7600000000000002,39.07933109576214,40.85774416759278,0.0,9.986297790785885,-0.5233129405479606,0.0,0.0,0.0,-2.9997325097424126,-0.09037905672568228,-1.7246891956616464,0.0,0.0,0.0,-9.895299935317512,-2.9997325097424126,0.0,0.0
3.8000000000000003,39.478706405785644,40.835412615857635,0.0,9.982357696338392,-0.5937464293397292,0.0,0.0,0.0,-3.4039184511820486,-0.10688220012289709,-1.7969562430629855,0.0,0.0,0.0,-10.313997136664357,-3.4039184511820486,0.0,0.0
3.84,39.877910494925366,40.810205959063026,0.0,9.977726278508117,-0.6670669465417782,0.0,0.0,0.0,-3.824852280675558,-0.12495554997360064,-1.8690362055571352,0.0,0.0,0.0,-10.732694338011202,-3.824852280675558,0.0,0.0
3.88,40.276914437590534,40.78200887295115,0.0,9.9723394929851,-0.7432664640959501,0.0,0.0,0.0,-4.262533998222949,-0.14466083592275158,-1.9409014624591803,0.0,0.0,0.0,-11.151391539358054,-4.262533998222949,0.0,0.0
3.92,40.67568669715491,40.75070637710899,0.0,9.966130835419666,-0.8223358020281599,0.0,0.0,0.0,-4.716963603824207,-0.16605932033706086,-2.012522024261011,0.0,0.0,0.0,-11.5700887407049,-4.716963603824207,0.0,0.0
3.96,41.07419302794526,40.716183882962966,0.0,9.959031361342783,-0.9042645319766313,0.0,0.0,0.0,-5.188141097479338,-0.18921173602991312,-2.083865446914061,0.0,0.0,0.0,-11.988785942051745,-5.188141097479338,0.0,0.0
4.0,41.47239637807788,40.67832724570067,0.0,9.950969708676183,-0.9890408773195453,0.0,0.0,0.0,-5.676066479188353,-0.21417821901999726,-2.1548967475462786,0.0,0.0,0.0,-12.407483143398597,-5.676066479188353,0.0,0.0
4.04,41.87025679325053,40.63702282025447,0.0,9.941872123034178,-1.0766516099629908,0.0,0.0,0.0,-6.18073974895123,-0.24101823616332457,-2.225578321791012,0.0,0.0,0.0,-12.826180344745444,-6.18073974895123,0.0,0.0
4.08,42.2677313216059,40.59215752147928,0.0,9.93166248602528,-1.1670819438574829,0.0,0.0,0.0,-6.702160906767984,-0.26979050750358013,-2.2958698629187517,0.0,0.0,0.0,-13.244877546092287,-6.702160906767984,0.0,0.0
4.12,42.66477391979056,40.54361888865384,0.0,9.920262346767979,-1.2603154253191764,0.0,0.0,0.0,-7.240329952638609,-0.3005529231916144,-2.3657282829762534,0.0,0.0,0.0,-13.663574747439132,-7.240329952638609,0.0,0.0
4.16,43.061335360342575,40.49129515443167,0.0,9.907590956840721,-1.356333820240423,0.0,0.0,0.0,-7.79524688656311,-0.3333624548314291,-2.4351076361515744,0.0,0.0,0.0,-14.082271948785976,-7.79524688656311,0.0,0.0
4.2,43.4573631405495,40.43507531836426,0.0,9.893565308891786,-1.455116998283297,0.0,0.0,0.0,-8.366911708541494,-0.3682750611172343,-2.5039590445978055,0.0,0.0,0.0,-14.50096915013283,-8.366911708541494,0.0,0.0
4.24,43.85280139292781,40.37484922511516,0.0,9.87810017914002,-1.5566428141593405,0.0,0.0,0.0,-8.955324418573742,-0.4053455876341272,-2.5722306269628454,0.0,0.0,0.0,-14.919666351479673,-8.955324418573742,0.0,0.0
4.28,44.24759079748415,40.31050764747926,0.0,9.861108174002242,-1.6608869861089777,0.0,0.0,0.0,-9.560485016659864,-0.4446276607037184,-2.6398674298873983,0.0,0.0,0.0,-15.338363552826522,-9.560485016659864,0.0,0.0
4.32,44.6416684959282,40.241942374316885,0.0,9.84249978108777,-1.767822971704793,0.0,0.0,0.0,-10.18239350279987,-0.4861735751656099,-2.7068113627483985,0.0,0.0,0.0,-15.757060754173374,-10.18239350279987,0.0,0.0
4.36,45.034968008016634,40.16904630350702,0.0,9.822183424804638,-1.8774218411143075,0.0,0.0,0.0,-10.82104987699374,-0.5300341759961237,-2.7730011359403033,0.0,0.0,0.0,-16.175757955520215,-10.82104987699374,0.0,0.0
4.4,45.42741915021787,40.09171354001839,0.0,9.800065526825769,-1.9896521479698794,0.0,0.0,0.0,-11.476454139241481,-0.5762587336770868,-2.838372203002082,0.0,0.0,0.0,-16.594455156867063,-11.476454139241481,0.0,0.0
4.44,45.81894795689669,40.00983949919098,0.0,9.776050571666703,-2.1044797980059466,0.0,0.0,0.0,-12.148606289543102,-0.624894813239836,-2.90285670691318,0.0,0.0,0.0,-17.013152358213908,-12.148606289543102,0.0,0.0
4.48,46.20947660422853,39.923321015313796,0.0,9.750041177629067,-2.2218679156371124,0.0,0.0,0.0,-12.837506327898591,-0.6759881369230253,-2.966383430897301,0.0,0.0,0.0,-17.43184955956075,-12.837506327898591,0.0,0.0
4.5200000000000005,46.5989233370631,39.83205645557766,0.0,9.721938173366295,-2.3417767086644288,0.0,0.0,0.0,-13.543154254307971,-0.7295824403972734,-3.028877754088379,0.0,0.0,0.0,-17.850546760907605,-13.543154254307971,0.0,0.0
4.5600000000000005,46.98720239896724,39.73594583947378,0.0,9.691640680329565,-2.4641633313116795,0.0,0.0,0.0,-14.265550068771205,-0.7857193225252425,-3.090261612428586,0.0,0.0,0.0,-18.26924396225445,-14.265550068771205,0.0,0.0
4.6000000000000005,47.37422396568778,39.63489096370073,0.0,9.659046201352885,-2.58898174580865,0.0,0.0,0.0,-15.004693771288316,-0.8444380886425082,-3.1504534651836624,0.0,0.0,0.0,-18.687941163601295,-15.004693771288316,0.0,0.0
4.64,47.759894082284646,39.52879553263326,0.0,9.624050715636525,-2.716182582753979,0.0,0.0,0.0,-15.760585361859317,-0.9057755873624422,-3.209368267475993,0.0,0.0,0.0,-19.106638364948147,-15.760585361859317,0.0,0.0
4.68,48.144114604195735,39.41756529439697,0.0,9.586548780387432,-2.845713000506595,0.0,0.0,0.0,-16.53322484048418,-0.9697660409275464,-3.266917449250895,0.0,0.0,0.0,-19.52533556629499,-16.53322484048418,0.0,0.0
4.72,48.526783142504826,39.301108182582226,0.0,9.54643363937396,-2.9775165438716265,0.0,0.0,0.0,-17.322612207162916,-1.0364408691500975,-3.3230089011062303,0.0,0.0,0.0,-19.944032767641836,-17.322612207162916,0.0,0.0
4.76,48.907793013694175,39.17933446362014,0.0,9.503597338650184,-3.111533002364129,0.0,0.0,0.0,-18.128747461895518,-1.1058285070067084,-3.3775469674297227,0.0,0.0,0.0,-20.36272996898868,-18.128747461895518,0.0,0.0
4.8,49.2870331941737,39.05215688983144,0.0,9.4579308497019,-3.247698268352081,0.0,0.0,0.0,-18.951630604682002,-1.1779542159745502,-3.4304324473021897,0.0,0.0,0.0,-20.781427170335526,-18.951630604682002,0.0,0.0
4.84,49.66438827988867,38.91949085814672,0.0,9.40932420026253,-3.3859441953986646,0.0,0.0,0.0,-19.79126163552237,-1.2528398892214683,-3.4815626036381886,0.0,0.0,0.0,-21.200124371682378,-19.79126163552237,0.0,0.0
4.88,50.03973845131725,38.78125457448344,0.0,9.35766661304209,-3.52619845714296,0.0,0.0,0.0,-20.6476405544166,-1.3305038507881461,-3.5308311810481285,0.0,0.0,0.0,-21.618821573029226,-20.6476405544166,0.0,0.0
4.92,50.41295944417978,38.63736922375084,0.0,9.302846652606306,-3.6683844070778178,0.0,0.0,0.0,-21.5207673613647,-1.410960648927853,-3.57812843291787,0.0,0.0,0.0,-22.037518774376068,-21.5207673613647,0.0,0.0
4.96,50.783922526189784,38.487759145439725,0.0,9.244752380635804,-3.812420939603686,0.0,0.0,0.0,-22.410642056366697,-1.4942208437981197,-3.6233411582127886,0.0,0.0,0.0,-22.456215975722923,-22.410642056366697,0.0,0.0
5.0,51.15249448018668,38.33235201473779,0.0,9.183271519786915,-3.958222352757677,0.0,0.0,0.0,-23.317264639422543,-1.5802907897290202,-3.666352748523454,0.0,0.0,0.0,-22.874913177069764,-23.317264639422543,0.0,0.0
5.04,51.51853759399877,38.17107902909541,0.0,9.11829162636597,-4.105698213038096,0.0,0.0,0.0,-24.240635110532274,-1.6691724123246123,-3.7070432458790603,0.0,0.0,0.0,-23.293610378416613,-24.240635110532274,0.0,0.0
5.08,51.88190965739244,38.00387510014913,0.0,9.049700272018127,-4.254753222765691,0.0,0.0,0.0,-25.180753469695865,-1.7608629806873246,-3.7452894118626268,0.0,0.0,0.0,-23.712307579763454,-25.180753469695865,0.0,0.0
5.12,52.24246402937511,37.83067917962116,0.0,8.977397185118875,-4.405262736843251,0.0,0.0,0.0,-26.137464286617345,-1.8538361538960058,-3.7778957723605537,0.0,0.0,0.0,-24.111385375193233,-26.137464286617345,0.0,0.0
5.16,52.60005216124941,37.65143941858737,0.0,8.901388265655552,-4.556894440740278,0.0,0.0,0.0,-27.109303050905556,-1.9470071982144281,-3.803262781860124,0.0,0.0,0.0,-24.48055283921732,-27.109303050905556,0.0,0.0
5.2,52.954524765371914,37.46611478594993,0.0,8.821604986827863,-4.70948887421701,0.0,0.0,0.0,-28.095908513754722,-2.0425497705079425,-3.8260133366070863,0.0,0.0,0.0,-24.849720303241416,-28.095908513754722,0.0,0.0
5.24,53.3057289774206,37.2746688960842,0.0,8.73795304098388,-4.862939096221602,0.0,0.0,0.0,-29.097280675164864,-2.140435409534105,-3.8460329701229345,0.0,0.0,0.0,-25.218887767265503,-29.097280675164864,0.0,0.0
5.28,53.65350818480903,37.077069733090205,0.0,8.650339354675847,-5.017133549044339,0.0,0.0,0.0,-30.113419535135975,-2.2406308361053,-3.8632053365519514,0.0,0.0,0.0,-25.5880552312896,-30.113419535135975,0.0,0.0
5.32,53.9977020799573,36.8732898369288,0.0,8.558672285008866,-5.1719559856809605,0.0,0.0,0.0,-31.14432509366804,-2.343097771451528,-3.877412339375868,0.0,0.0,0.0,-25.957222695313696,-31.14432509366804,0.0,0.0
5.36,54.33814672156237,36.663306492357464,0.0,8.462861823263372,-5.327285402562111,0.0,0.0,0.0,-32.189997350761075,-2.447792755240762,-3.8885342710613657,0.0,0.0,0.0,-26.326390159337784,-32.189997350761075,0.0,0.0
5.4,54.6746746041588,36.447101920442265,0.0,8.362819805796214,-5.482995978092868,0.0,0.0,0.0,-33.25043630641508,-2.5546669637057406,-3.896449963970736,0.0,0.0,0.0,-26.695557623361882,-33.25043630641508,0.0,0.0
5.44,55.00711473626098,36.22466347240443,0.0,8.258460132206624,-5.638957017459322,0.0,0.0,0.0,-34.32564196063004,-2.663666028355118,-3.9010369528574937,0.0,0.0,0.0,-27.06472508738597,-34.32564196063004,0.0,0.0
5.48,55.33529272737672,35.99598382554143,0.0,8.149698990733624,-5.795032904171931,0.0,0.0,0.0,-35.41561431340595,-2.774729855776526,-3.902171649258595,0.0,0.0,0.0,-27.43389255141006,-35.41561431340595,0.0,0.0
5.5200000000000005,55.659030884180574,35.76106118094369,0.0,8.03645509083058,-5.951083058827465,0.0,0.0,0.0,-36.520353364742824,-2.8877924490692104,-3.899729528083066,0.0,0.0,0.0,-27.803060015434152,-36.520353364742824,0.0,0.0
5.5600000000000005,55.97814831613234,35.51989946270821,0.0,7.918649902840436,-6.106961905583263,0.0,0.0,0.0,-37.639859114640664,-3.0027817314745513,-3.893585326683155,0.0,0.0,0.0,-28.172227479458243,-37.639859114640664,0.0,0.0
5.6000000000000005,56.29246105082307,35.2725085183305,0.0,7.7962079046718245,-6.262518846848492,0.0,0.0,0.0,-38.774131563099495,-3.1196193728037604,-3.883613256678544,0.0,0.0,0.0,-28.541394943482338,-38.774131563099495,0.0,0.0
5.64,56.60178215932602,35.01890431993605,0.0,7.669056835351685,-6.417598246707687,0.0,0.0,0.0,-39.923170710119265,-3.238220619293311,-3.869687228786619,0.0,0.0,0.0,-28.91056240750643,-39.923170710119265,0.0,0.0
5.68,56.905921891824846,34.75910916599146,0.0,7.537127955304102,-6.57203942360158,0.0,0.0,0.0,-41.086976555700005,-3.3584941275502933,-3.8516810908921553,0.0,0.0,0.0,-29.27972987153052,-41.086976555700005,0.0,0.0
5.72,57.20468782378457,34.49315188311425,0.0,7.400356313178047,-6.72567665279902,0.0,0.0,0.0,-42.265549099841714,-3.480341803281406,-3.829468879568015,0.0,0.0,0.0,-29.648897335554615,-42.265549099841714,0.0,0.0
5.76,57.49788501292309,34.221068027579,0.0,7.258681019018232,-6.878339179201943,0.0,0.0,0.0,-43.458888342544384,-3.6036586455311377,-3.802925085234423,0.0,0.0,0.0,-30.018064799578713,-43.458888342544384,0.0,0.0
5.8,57.78531616723287,33.94290008609551,0.0,7.11204552354369,-7.029851241032214,0.0,0.0,0.0,-44.66699428380801,-3.728332597186273,-3.771924931118062,0.0,0.0,0.0,-30.387232263602797,-44.66699428380801,0.0,0.0
5.84,58.0667818242911,33.658697675412554,0.0,6.960397903267768,-7.18003210495508,0.0,0.0,0.0,-45.889866923632596,-3.8542444025352736,-3.736344666143507,0.0,0.0,0.0,-30.756399727626892,-45.889866923632596,0.0,0.0
5.88,58.342080542086876,33.36851774027869,0.0,6.803691151161009,-7.328696113198676,0.0,0.0,0.0,-47.127506262018144,-3.981267472702288,-3.696061871858295,0.0,0.0,0.0,-31.125567191650983,-47.127506262018144,0.0,0.0
5.92,58.611009101580244,33.072424749268976,0.0,6.641883472525093,-7.475652743232393,0.0,0.0,0.0,-48.37991229896469,-4.109267759806199,-3.6509557834592092,0.0,0.0,0.0,-31.494734655675078,-48.37991229896469,0.0,0.0
5.96,58.873362721194184,32.77049088796399,0.0,6.474938585711275,-7.620706680568887,0.0,0.0,0.0,-49.64708503447218,-4.238103640725236,-3.600907624950965,0.0,0.0,0.0,-31.86390211969917,-49.64708503447218,0.0,0.0
6.0,59.12893528342583,32.46279624894481,0.0,6.302826027280992,-7.763657905255055,0.0,0.0,0.0,-50.929024468540604,-4.367625811377096,-3.545800958429459,0.0,0.0,0.0,-32.23306958372326,-50.929024468540604,0.0,0.0
6.04,59.377519573745495,32.14942901804525,0.0,6.125521461169379,-7.904301792616053,0.0,0.0,0.0,-52.225730601170035,-4.497677192452942,-3.485522047439971,0.0,0.0,0.0,-32.60223704774736,-52.225730601170035,0.0,0.0
6.08,59.61890753193451,31.830485656279862,0.0,5.943006991374312,-8.042429228813646,0.0,0.0,0.0,-53.53720343236043,-4.62809284757113,-3.4199602343161635,0.0,0.0,0.0,-32.971404511771446,-53.53720343236043,0.0,0.0
6.12,59.852890515992584,31.50607107684404,0.0,5.755271477654375,-8.17782674177547,0.0,0.0,0.0,-54.863442962111755,-4.758699914842693,-3.349008331358264,0.0,0.0,0.0,-33.340571975795534,-54.863442962111755,0.0,0.0
6.16,60.079259578724006,31.176298816560347,0.0,5.562310853679097,-8.3102766480451,0.0,0.0,0.0,-56.20444919042405,-4.889317552865379,-3.2725630256586413,0.0,0.0,0.0,-33.70973943981963,-56.20444919042405,0.0,0.0
6.2,60.29780575708905,30.84129120112344,0.0,5.364128447033546,-8.43955721609407,0.0,0.0,0.0,-57.56022211729732,-5.019756902186176,-3.190525297329737,0.0,0.0,0.0,-34.07890690384372,-57.56022211729732,0.0,0.0
6.24,60.50832037438205,30.501179503474333,0.0,5.16073530043741,-8.565442846626157,0.0,0.0,0.0,-58.930761742731555,-5.1498210632936345,-3.102800850833292,0.0,0.0,0.0,-34.44807436786781,-58.930761742731555,0.0,0.0
6.28,60.710595355271195,30.156104094614097,0.0,4.952150493495793,-8.687704270390963,0.0,0.0,0.0,-60.31606806672675,-5.279305092220564,-3.009300559050728,0.0,0.0,0.0,-34.81724183189191,-60.31606806672675,0.0,0.0
6.32,60.904423553706955,29.80621458614633,0.0,4.738401464255443,-8.806108764008192,0.0,0.0,0.0,-61.716141089282914,-5.407996014854741,-2.909940919672641,0.0,0.0,0.0,-35.18640929591599,-61.716141089282914,0.0,0.0
6.36,61.0895990936762,29.451669963818475,0.0,4.51952432979586,-8.920420384285894,0.0,0.0,0.0,-63.13098081040004,-5.535672861069845,-2.8046445234204773,0.0,0.0,0.0,-35.555576759940095,-63.13098081040004,0.0,0.0
6.4,61.26591772274692,29.09263871131272,0.0,4.29556420504007,-9.030400221495084,0.0,0.0,0.0,-64.56058723007811,-5.66210671980066,-2.6933405335456757,0.0,0.0,0.0,-35.92474422396418,-64.56058723007811,0.0,0.0
6.44,61.43317717831586,28.729298923519384,0.0,4.06657551892459,-9.135806672039596,0.0,0.0,0.0,-66.00496034831717,-5.787060816195564,-2.575965175980973,0.0,0.0,0.0,-36.29391168798828,-66.00496034831717,0.0,0.0
6.48,61.59117756643467,28.36183840850881,0.0,3.832622327022837,-9.23639573093347,0.0,0.0,0.0,-67.4641001651172,-5.910290611984826,-2.4524622394451274,0.0,0.0,0.0,-36.663079152012365,-67.4641001651172,0.0,0.0
6.5200000000000005,61.73972175305471,27.99045477740149,0.0,3.5937786196704318,-9.331921304468855,0.0,0.0,0.0,-68.93800668047815,-6.03154393020569,-2.322783584726116,0.0,0.0,0.0,-37.03224661603646,-68.93800668047815,0.0,0.0
6.5600000000000005,61.878615767490054,27.61535552132171,0.0,3.3501286245953468,-9.422135543424691,0.0,0.0,0.0,-70.42667989440011,-6.150561105423474,-2.1868896622890817,0.0,0.0,0.0,-37.401414080060555,-70.42667989440011,0.0,0.0
6.6000000000000005,62.00766921785866,27.236758074606925,0.0,3.101767103010462,-9.506789197130757,0.0,0.0,0.0,-71.93011980688304,-6.267075160582508,-2.044750037273964,0.0,0.0,0.0,-37.77058154408465,-71.93011980688304,0.0,0.0
6.640000000000001,62.126695718218365,26.854889863432568,0.0,2.848799638080659,-9.58563198866259,0.0,0.0,0.0,-73.44832641792688,-6.380812011610971,-1.8963439208638184,0.0,0.0,0.0,-38.139749008108744,-73.44832641792688,0.0,0.0
6.68,62.235515483258176,26.469988922774444,0.0,2.591823161387943,-9.658284148858586,0.0,0.0,0.0,-74.978450781669,-6.420137873461249,-1.7228590278851237,0.0,0.0,0.0,-38.08614432667079,-74.978450781669,0.0,0.0
6.72,62.334080398882435,26.082334761167353,0.0,2.3371375515008683,-9.72305446170927,0.0,0.0,0.0,-76.48418482736875,-6.312909155064249,-1.5174384863952066,0.0,0.0,0.0,-37.20055795831614,-76.48418482736875,0.0,0.0
6.76,62.42254560297476,25.692251273402956,0.0,2.086884746597499,-9.779821678048057,0.0,0.0,0.0,-77.95449541833429,-6.198605716012866,-1.3227005711111448,0.0,0.0,0.0,-36.31497158996152,-77.95449541833429,0.0,0.0
6.8,62.501093896377114,25.30005004529216,0.0,1.8413349459436703,-9.829012443620499,0.0,0.0,0.0,-79.38938255456567,-6.077862473857878,-1.138606816701906,0.0,0.0,0.0,-35.429385221606864,-79.38938255456567,0.0,0.0
6.84,62.56991838730998,24.90602563621251,0.0,1.6007335038380357,-9.87105122313173,0.0,0.0,0.0,-80.78884623606287,-5.951286653568523,-0.9650870735010622,0.0,0.0,0.0,-34.54379885325221,-80.78884623606287,0.0,0.0
6.88,62.62922151988509,24.51045569100391,0.0,1.365302048816277,-9.90635908472422,0.0,0.0,0.0,-82.15288646282583,-5.819457242033183,-0.8020420850480215,0.0,0.0,0.0,-33.65821248489759,-82.15288646282583,0.0,0.0
6.92,62.679214147776264,24.11360109844761,0.0,1.1352396212182079,-9.935352585712112,0.0,0.0,0.0,-83.48150323485466,-5.682924613203408,-0.6493459723394668,0.0,0.0,0.0,-32.77262611654293,-83.48150323485466,0.0,0.0
6.96,62.72011465365,23.715706192354695,0.0,0.910723822555187,-9.958442755723931,0.0,0.0,0.0,-84.77469655214931,-5.542210310784263,-0.50684861915193,0.0,0.0,0.0,-31.88703974818828,-84.77469655214931,0.0,0.0
7.0,62.752148114705115,23.316998991447647,0.0,0.6919119706317679,-9.976034173202118,0.0,0.0,0.0,-86.03246641470972,-5.397806975739583,-0.37437795388736894,0.0,0.0,0.0,-31.00145337983366,-86.03246641470972,0.0,0.0
7.04,62.77554551443913,22.917691474384913,0.0,0.478942254876843,-9.988524131046262,0.0,0.0,0.0,-87.254812822536,-5.250178406296988,-0.25174212440473936,0.0,0.0,0.0,-30.115867011479008,-87.254812822536,0.0,0.0
7.08,62.79054300054694,22.517979886449037,0.0,0.27193488682306266,-9.996301887064462,0.0,0.0,0.0,-88.44173577562808,-5.099759738595948,-0.13873156323284597,0.0,0.0,0.0,-29.230280643124352,-88.44173577562808,0.0,0.0
7.12,62.79738118866427,22.118045074594047,0.0,0.07099324113766503,-9.999747994810308,0.0,0.0,0.0,-89.59323527398593,-4.946957736615174,-0.035120941415286225,0.0,0.0,0.0,-28.34469427476973,-89.59323527398593,0.0,0.0
7.16,62.79630451149345,21.718052847726213,0.0,-0.12379501694778627,-9.999233710328951,0.0,0.0,0.0,-90.70931131760963,-4.792151180536664,0.0593289899803106,0.0,0.0,0.0,-27.459107906415078,-90.70931131760963,0.0,0.0
7.2,62.78756061269153,21.3181543592719,0.0,-0.3123568215382752,-9.995120470311425,0.0,0.0,0.0,-91.78996390649911,-4.635691343246041,0.14486967094691902,0.0,0.0,0.0,-26.57352153806045,-91.78996390649911,0.0,0.0
7.24,62.7713997847596,20.918486509265904,0.0,-0.4946326166357452,-9.98775943715907,0.0,0.0,0.0,-92.83519304065446,-4.477902545226357,0.22176311583403427,0.0,0.0,0.0,-25.6879351697058,-92.83519304065446,0.0,0.0
7.28,62.748074450046786,20.5191723633738,0.0,-0.6705752903091609,-9.97749110648698,0.0,0.0,0.0,-93.84499872007564,-4.3190827786707295,0.29028040789666837,0.0,0.0,0.0,-24.802348801351148,-93.84499872007564,0.0,0.0
7.32,62.71783868387134,20.12032158643902,0.0,-0.8401491350691881,-9.964644972644157,0.0,0.0,0.0,-94.81938094476254,-4.159504392212126,0.35070030362619126,0.0,0.0,0.0,-23.916762432996524,-94.81938094476254,0.0,0.0
7.36,62.680947778664496,19.7220308883215,0.0,-1.0033288367096902,-9.949539247896196,0.0,0.0,0.0,-95.75833971471533,-3.999414828242979,0.4033079449371482,0.0,0.0,0.0,-23.031176064641873,-95.75833971471533,0.0,0.0
7.4,62.63765784795827,19.324384479967236,0.0,-1.1600984935685041,-9.932480631001507,0.0,0.0,0.0,-96.6618750299339,-3.8390374053686815,0.44839367688475196,0.0,0.0,0.0,-22.14558969628725,-96.6618750299339,0.0,0.0
7.44,62.58822546896622,18.92745453781635,0.0,-1.3104506678733465,-9.913764121012276,0.0,0.0,0.0,-97.52998689041831,-3.6785721391038138,0.4862519682399562,0.0,0.0,0.0,-21.26000332793259,-97.52998689041831,0.0,0.0
7.48,62.53290736244489,18.531301674822622,0.0,-1.454385470573856,-9.893672872244345,0.0,0.0,0.0,-98.36267529616852,-3.5181965944759535,0.5171804319488802,0.0,0.0,0.0,-20.37441695957794,-98.36267529616852,0.0,0.0
7.5200000000000005,62.47196010847259,18.135975416516505,0.0,-1.591909680818545,-9.872478086484477,0.0,0.0,0.0,-99.15994024718454,-3.358066764745372,0.5414789422476955,0.0,0.0,0.0,-19.488830591223316,-99.15994024718454,0.0,0.0
7.5600000000000005,62.40563989674017,17.741514680698558,0.0,-1.7230359010142993,-9.85043893863699,0.0,0.0,0.0,-99.9217817434664,-3.198317970978607,0.5594488449890218,0.0,0.0,0.0,-18.60324422286866,-99.9217817434664,0.0,0.0
7.6000000000000005,62.33420230991525,17.34794825949958,0.0,-1.847781748205902,-9.827802532153214,0.0,0.0,0.0,-100.64819978501406,-3.039065777727293,0.571392257558042,0.0,0.0,0.0,-17.71765785451401,-100.64819978501406,0.0,0.0
7.640000000000001,62.2579021386152,16.95529530268655,0.0,-1.966169082333116,-9.804803880735063,0.0,0.0,0.0,-101.33919437182749,-2.8804069205590115,0.57761145461248,0.0,0.0,0.0,-16.832071486159386,-101.33919437182749,0.0,0.0
7.68,62.176993226505466,16.563565801231018,0.0,-2.0782232717623623,-9.781665912957022,0.0,0.0,0.0,-101.99476550390679,-2.7224202416635492,0.5784083357669835,0.0,0.0,0.0,-15.946485117804734,-101.99476550390679,0.0,0.0
7.72,62.09172834402667,16.17276107028808,0.0,-2.1839724963480207,-9.758599496607872,0.0,0.0,0.0,-102.6149131812519,-2.565167630214147,0.5740839712560488,0.0,0.0,0.0,-15.060898749450079,-102.6149131812519,0.0,0.0
7.76,62.0023590892463,15.782874230857995,0.0,-2.2834470881545315,-9.73580347971335,0.0,0.0,0.0,-103.1996374038628,-2.4086949645982485,0.5649382215474107,0.0,0.0,0.0,-14.175312381095457,-103.1996374038628,0.0,0.0
7.8,61.90913581432769,15.393890689521522,0.0,-2.3766789098632506,-9.71346474536307,0.0,0.0,0.0,-103.74893817173952,-2.2530330540457593,0.551269426836757,0.0,0.0,0.0,-13.289726012740804,-103.74893817173952,0.0,0.0
7.84,61.8123075761101,15.005788615751728,0.0,-2.4637007707970326,-9.691758277628168,0.0,0.0,0.0,-104.26281548488205,-2.0981985775738714,0.5333741623319829,0.0,0.0,0.0,-12.404139644386182,-104.26281548488205,0.0,0.0
7.88,61.71212210929763,14.61853941640984,0.0,-2.5445458804198613,-9.670847236020137,0.0,0.0,0.0,-104.74126934329043,-1.9441950185357995,0.5115470552282213,0.0,0.0,0.0,-11.518553276031525,-104.74126934329043,0.0,0.0
7.92,61.60882582076202,14.232108207132148,0.0,-2.619247339107128,-9.65088303610505,0.0,0.0,0.0,-105.18429974696458,-1.7910135934067268,0.48608065928115585,0.0,0.0,0.0,-10.632966907676872,-105.18429974696458,0.0,0.0
7.96,61.50266380347337,13.84645428040642,0.0,-2.6878376659342065,-9.632005434050864,0.0,0.0,0.0,-105.5919066959046,-1.638634173762771,0.45726538290315655,0.0,0.0,0.0,-9.74738053932225,-105.5919066959046,0.0,0.0
8.0,61.39387986858366,13.461531570222359,0.0,-2.750348363195161,-9.61434261304795,0.0,0.0,0.0,-105.96409019011038,-1.487026200708907,0.42538946673250433,0.0,0.0,0.0,-8.861794170967631,-105.96409019011038,0.0,0.0
8.040000000000001,61.282716594200174,13.077289113259784,0.0,-2.8068095173393237,-9.598011269704438,0.0,0.0,0.0,-106.30085022958197,-1.3361495912889039,0.3907390066582231,0.0,0.0,0.0,-7.976207802613004,-106.30085022958197,0.0,0.0
8.08,61.16941538939842,12.693671506650643,0.0,-2.857249435999975,-9.583116698677827,0.0,0.0,0.0,-106.6021868143194,-1.1859556366648156,0.35359801831997445,0.0,0.0,0.0,-7.0906214342583835,-106.6021868143194,0.0,0.0
8.120000000000001,61.05421657203764,12.310619362417675,0.0,-2.9016943207855594,-9.569752873962882,0.0,0.0,0.0,-106.86809994432264,-1.0363878920857448,0.3142485391423482,0.0,0.0,0.0,-6.205035065903763,-106.86809994432264,0.0,0.0
8.16,60.93735945895481,11.928069758752411,0.0,-2.9401679755089365,-9.558002525412498,0.0,0.0,0.0,-107.09858961959168,-0.8873830588755294,0.2729707640041027,0.0,0.0,0.0,-5.319448697549138,-107.09858961959168,0.0,0.0
8.2,60.81908246712595,11.545956688349051,0.0,-2.9726915495431823,-9.547937209223496,0.0,0.0,0.0,-107.29365584012656,-0.7388718588569777,0.2300432106840416,0.0,0.0,0.0,-4.4338623291945165,-107.29365584012656,0.0,0.0
8.24,60.69962322439552,11.164211504058468,0.0,-2.999283316012589,-9.539617371272735,0.0,0.0,0.0,-107.45329860592726,-0.5907799017965878,0.18574291126496828,0.0,0.0,0.0,-3.5482759608398955,-107.45329860592726,0.0,0.0
8.28,60.579218688386014,10.78276336216804,0.0,-3.0199584845537557,-9.533092402341005,0.0,0.0,0.0,-107.57751791699373,-0.4430285465985842,0.14034562571441808,0.0,0.0,0.0,-2.6626895924852705,-107.57751791699373,0.0,0.0
8.32,60.458105272209565,10.401539663648549,0.0,-3.0347290484135026,-9.52840068441264,0.0,0.0,0.0,-107.66631377332605,-0.2955357571007849,0.09412607389462598,0.0,0.0,0.0,-1.7771032241306532,-107.66631377332605,0.0,0.0
8.36,60.336518975612336,10.020466493738894,0.0,-3.0436036656863648,-9.525569627388197,0.0,0.0,0.0,-107.71968617492418,-0.14821695342753294,0.047358182283592704,0.0,0.0,0.0,-0.8915168557760241,-107.71968617492418,0.0,0.0
8.4,60.21469552018927,9.639469060262833,0.0,-3.046587574534577,-9.524615695695628,0.0,0.0,0.0,-107.73763512178814,-0.000985859936928216,0.00031534171351756406,0.0,0.0,0.0,-0.005930487421402979,-107.73763512178814,0.0,0.0
8.44,60.09287048731234,9.258472131089711,0.0,-3.043682542276025,-9.525544424432871,0.0,0.0,0.0,-107.7201606139179,0.14624464913911822,-0.046729327548385054,0.0,0.0,0.0,0.8796558809332181,-107.7201606139179,0.0,0.0
8.48,59.97127945741923,8.87740047116269,0.0,-3.034886848270607,-9.528350424821397,0.0,0.0,0.0,-107.66726265131348,0.2935617052225285,-0.0935027070388676,0.0,0.0,0.0,1.7652422492878392,-107.66726265131348,0.0,0.0
8.52,59.850158149310985,8.496179279524217,0.0,-3.0201953005814635,-9.533017378896654,0.0,0.0,0.0,-107.57894123397489,0.44105160092450074,-0.13973141131315972,0.0,0.0,0.0,2.6508286176424605,-107.57894123397489,0.0,0.0
8.56,59.72974255810747,8.114734626768076,0.0,-2.999599286433982,-9.539518023507515,0.0,0.0,0.0,-107.4551963619021,0.5887989444286796,-0.18514152279068313,0.0,0.0,0.0,3.5364149859970815,-107.4551963619021,0.0,0.0
8.6,59.610269090507416,7.7329938933419236,0.0,-2.973086856541574,-9.547814123843203,0.0,0.0,0.0,-107.2960280350951,0.7368858115822101,-0.22945833389403952,0.0,0.0,0.0,4.4220013543517105,-107.2960280350951,0.0,0.0
8.64,59.491945852890495,7.350895111463349,0.0,-2.94301118668748,-9.557127453112276,0.0,0.0,0.0,-107.11563412828994,0.755714061294981,-0.2327137465979788,0.0,0.0,0.0,4.530569090275429,-107.11563412828994,0.0,0.0
8.68,59.37483173467827,6.968424002892634,0.0,-2.9126507580116137,-9.566423864843873,0.0,0.0,0.0,-106.93370944945265,0.7623089443288945,-0.23209715102612424,0.0,0.0,0.0,4.565664851588897,-106.93370944945265,0.0,0.0
8.72,59.25893731201897,6.585581546665756,0.0,-2.8820263469421343,-9.575694446646226,0.0,0.0,0.0,-106.75038094016283,0.7689131420449337,-0.23142216433813806,0.0,0.0,0.0,4.6007606129023655,-106.75038094016283,0.0,0.0
8.76,59.14427315159732,6.2023688228300635,0.0,-2.8511375856126597,-9.584936852577945,0.0,0.0,0.0,-106.56564860042046,0.7755264171654046,-0.23068827167297468,0.0,0.0,0.0,4.635856374215834,-106.56564860042046,0.0,0.0
8.8,59.030849834620874,5.8187870056825055,0.0,-2.8199841157962457,-9.594148716100708,0.0,0.0,0.0,-106.37951243022557,0.7821485249855793,-0.22989495805410287,0.0,0.0,0.0,4.670952135529303,-106.37951243022557,0.0,0.0
8.84,58.918677956428525,5.434837364593514,0.0,-2.788565589203731,-9.60332765007572,0.0,0.0,0.0,-106.19197242957813,0.7887792133103243,-0.2290417084435328,0.0,0.0,0.0,4.7060478968427715,-106.19197242957813,0.0,0.0
8.88,58.80776812608695,5.050521264831141,0.0,-2.756881667784625,-9.612471246762357,0.0,0.0,0.0,-106.00302859847815,0.7954182223908943,-0.2281280077971507,0.0,0.0,0.0,4.74114365815624,-106.00302859847815,0.0,0.0
8.92,58.69813096597505,4.665840168385122,0.0,-2.724932024030507,-9.621577077819053,0.0,0.0,0.0,-105.81268093692564,0.8020652848619093,-0.2271533411213681,0.0,0.0,0.0,4.776239419469708,-105.81268093692564,0.0,0.0
8.96,58.589777111356085,4.280795634790744,0.0,-2.692716341280958,-9.630642694306465,0.0,0.0,0.0,-105.62092944492059,0.8087201256785281,-0.22611719353109933,0.0,0.0,0.0,4.811335180783177,-105.62092944492059,0.0,0.0
9.0,58.48271720993766,3.895389321952803,0.0,-2.6602343140319764,-9.639665626693013,0.0,0.0,0.0,-105.427774122463,0.8153824620538302,-0.2250190503090728,0.0,0.0,0.0,4.846430942096645,-105.427774122463,0.0,0.0
9.040000000000001,58.376961921419245,3.5096229869690667,0.0,-2.6274856482469247,-9.648643384862789,0.0,0.0,0.0,-105.23321496955285,0.8220520033964229,-0.22385839696649223,0.0,0.0,0.0,4.881526703410113,-105.23321496955285,0.0,0.0
9.08,58.27252191702718,3.123498486953408,0.0,-2.5944700616699494,-9.657573458125924,0.0,0.0,0.0,-105.03725198619018,0.8287284512482884,-0.22263471930505235,0.0,0.0,0.0,4.916622464723582,-105.03725198619018,0.0,0.0
9.120000000000001,58.16940787903719,2.737017779858647,0.0,-2.5611872841418757,-9.666453315231495,0.0,0.0,0.0,-104.83988517237496,0.8354114992228867,-0.22134750348032042,0.0,0.0,0.0,4.951718226037051,-104.83988517237496,0.0,0.0
9.16,58.0676305002841,2.35018292529852,0.0,-2.5276370579185943,-9.675280404382946,0.0,0.0,0.0,-104.64111452810722,0.8421008329435264,-0.2199962360664959,0.0,0.0,0.0,4.986813987350519,-104.64111452810722,0.0,0.0
9.200000000000001,57.967200483658885,1.962996085369289,0.0,-2.493819137991884,-9.684052153256168,0.0,0.0,0.0,-104.44094005338692,0.8487961299820241,-0.21858040412255364,0.0,0.0,0.0,5.021909748663988,-104.44094005338692,0.0,0.0
9.24,57.86812854159273,1.5754595254703903,0.0,-2.4597332924127064,-9.692765969020222,0.0,0.0,0.0,-104.23936174821411,0.8554970597976654,-0.217099495259784,0.0,0.0,0.0,5.057005509977456,-104.23936174821411,0.0,0.0
9.28,57.770425395528186,1.1875756151242358,0.0,-2.4253793026169053,-9.701419238360826,0.0,0.0,0.0,-104.03637961258875,0.8622032836764839,-0.2155529977107355,0.0,0.0,0.0,5.092101271290924,-104.03637961258875,0.0,0.0
9.32,57.6741017753772,0.799346828795068,0.0,-2.3907569637533603,-9.710009327506581,0.0,0.0,0.0,-103.83199364651084,0.8689144546708769,-0.21394040039957357,0.0,0.0,0.0,5.127197032604393,-103.83199364651084,0.0,0.0
9.36,57.579168418965985,0.4107757467065847,0.0,-2.3558660850145334,-9.718533582258091,0.0,0.0,0.0,-103.62620384998041,0.8756302175395732,-0.21226119301386132,0.0,0.0,0.0,5.162292793917861,-103.62620384998041,0.0,0.0
9.4,57.48563607146666,0.02186505565857111,0.0,-2.3207064899693957,-9.726989328019947,0.0,0.0,0.0,-103.41901022299743,0.8823502086879709,-0.21051486607777076,0.0,0.0,0.0,5.1973885552313295,-103.41901022299743,0.0,0.0
9.44,57.39351548481547,-0.36738245015807447,0.0,-2.2852780168987654,-9.735373869835675,0.0,0.0,0.0,-103.21041276556193,0.8890740561088634,-0.20870091102673793,0.0,0.0,0.0,5.232484316544799,-103.21041276556193,0.0,0.0
9.48,57.30281741711754,-0.756963868347607,0.0,-2.2495805191329787,-9.743684492425718,0.0,0.0,0.0,-103.00041147767385,0.8958013793235693,-0.20681882028356496,0.0,0.0,0.0,5.267580077858267,-103.00041147767385,0.0,0.0
9.52,57.21355263203816,-1.1468761874972833,0.0,-2.2136138653919266,-9.75191846022846,0.0,0.0,0.0,-102.78900635933326,0.9025317893234888,-0.2048680873359821,0.0,0.0,0.0,5.3026758391717355,-102.78900635933326,0.0,0.0
9.56,57.12573189818032,-1.5371162863670085,0.0,-2.177377940127409,-9.760073017444416,0.0,0.0,0.0,-102.57619741054012,0.9092648885121012,-0.20284820681567534,0.0,0.0,0.0,5.337771600485204,-102.57619741054012,0.0,0.0
9.6,57.03936598844854,-1.9276809330807554,0.0,-2.1408726438678043,-9.768145388083578,0.0,0.0,0.0,-102.36198463129446,0.916000270647423,-0.20075867457878932,0.0,0.0,0.0,5.372867361798672,-102.36198463129446,0.0,0.0
9.64,56.95446567939892,-2.3185667843198514,0.0,-2.104097893565028,-9.776132776016047,0.0,0.0,0.0,-102.14636802159625,0.9227375207849497,-0.19859898778791324,0.0,0.0,0.0,5.407963123112141,-102.14636802159625,0.0,0.0
9.68,56.871041750575195,-2.709770384518614,0.0,-2.067053622943776,-9.784032365025936,0.0,0.0,0.0,-101.92934758144548,0.9294762152210954,-0.19636864499555862,0.0,0.0,0.0,5.443058884425609,-101.92934758144548,0.0,0.0
9.72,56.78910498383078,-3.1012881650618978,0.0,-2.0297397828530013,-9.791841318868675,0.0,0.0,0.0,-101.71092331084219,0.9362159214371526,-0.19406714622913449,0.0,0.0,0.0,5.478154645739078,-101.71092331084219,0.0,0.0
9.76,56.70866616263679,-3.493116443485202,0.0,-1.9921563416196326,-9.799556781331729,0.0,0.0,0.0,-101.49109520978638,0.9429561980437956,-0.19169399307742988,0.0,0.0,0.0,5.5132504070525465,-101.49109520978638,0.0,0.0
9.8,56.629736071375724,-3.8852514226772827,0.0,-1.9543032854044995,-9.807175876298803,0.0,0.0,0.0,-101.26986327827801,0.949696594726141,-0.1892486887786099,0.0,0.0,0.0,5.548346168366015,-101.26986327827801,0.0,0.0
9.84,56.55232549462106,-4.27768919008524,0.0,-1.9161806185604469,-9.814695707817604,0.0,0.0,0.0,-101.04722751631711,0.956436652189393,-0.18673073830973355,0.0,0.0,0.0,5.583441929679483,-101.04722751631711,0.0,0.0
9.88,56.47644521640229,-4.670425716922554,0.0,-1.877788363992611,-9.822113360171219,0.0,0.0,0.0,-100.82318792390366,0.9631759021050903,-0.18413964847779934,0.0,0.0,0.0,5.618537690992952,-100.82318792390366,0.0,0.0
9.92,56.402106019455616,-5.063456857379999,0.0,-1.8391265635208174,-9.82942589795315,0.0,0.0,0.0,-100.59774450103768,0.9699138670579789,-0.18147492801232462,0.0,0.0,0.0,5.653633452306419,-100.59774450103768,0.0,0.0
9.96,56.32931868446009,-5.456778347839612,0.0,-1.80019527824412,-9.836630366146101,0.0,0.0,0.0,-100.37089724771916,0.9766500604935302,-0.17873608765946933,0.0,0.0,0.0,5.688729213619888,-100.37089724771916,0.0,0.0
10.0,56.258093989259116,-5.850385806091864,0.0,-1.7609945889074021,-9.84372379020454,0.0,0.0,0.0,-100.14264616394809,0.9833839866661285,-0.1759226402777051,0.0,0.0,0.0,5.723824974933356,-100.14264616394809,0.0,0.0
10.040000000000001,56.188442708067235,-6.24427473055627,0.0,-1.721524596270045,-9.850703176141145,0.0,0.0,0.0,-99.9129912497245,0.9901151405879505,-0.1730341009350404,0.0,0.0,0.0,5.758920736246826,-99.9129912497245,0.0,0.0
10.08,56.12037561066215,-6.638440499505559,0.0,-1.681785421476631,-9.857565510617146,0.0,0.0,0.0,-99.68193250504835,0.996843007978556,-0.17006998700780535,0.0,0.0,0.0,5.7940164975602935,-99.68193250504835,0.0,0.0
10.120000000000001,56.05390346156188,-7.032878370293392,0.0,-1.641777206429641,-9.86430776103666,0.0,0.0,0.0,-99.44946992991967,1.0035670652152207,-0.16702981828100275,0.0,0.0,0.0,5.829112258873763,-99.44946992991967,0.0,0.0
10.16,55.989037019186924,-7.427583478586125,0.0,-1.601500114164126,-9.870926875645077,0.0,0.0,0.0,-99.21560352433846,1.0102867792840247,-0.16391311705023,0.0,0.0,0.0,5.86420802018723,-99.21560352433846,0.0,0.0
10.200000000000001,55.925787035007474,-7.822550837598443,0.0,-1.5609543292243198,-9.877419783631545,0.0,0.0,0.0,-98.9803332883047,1.0170016077317294,-0.16071940822517883,0.0,0.0,0.0,5.8993037815006995,-98.9803332883047,0.0,0.0
10.24,55.864164252675444,-8.217775337333244,0.0,-1.5201400580421651,-9.88378339523563,0.0,0.0,0.0,-98.74365922181842,1.0237109986184594,-0.1574482194347166,0.0,0.0,0.0,5.934399542814167,-98.74365922181842,0.0,0.0
10.28,55.8041794071414,-8.613251743825849,0.0,-1.479057529317708,-9.890014601858208,0.0,0.0,0.0,-98.5055813248796,1.0304143904712235,-0.15409908113355378,0.0,0.0,0.0,5.969495304127636,-98.5055813248796,0.0,0.0
10.32,55.74584322375616,-9.008974698392759,0.0,-1.4377069944013345,-9.89611027617667,0.0,0.0,0.0,-98.26609959748824,1.0371112122382855,-0.15067152671050235,0.0,0.0,0.0,6.004591065441104,-98.26609959748824,0.0,0.0
10.36,55.68916641735713,-9.404938716885102,0.0,-1.3960887276778284,-9.902067272264459,0.0,0.0,0.0,-98.02521403964431,1.0438008832444265,-0.1471650925983313,0.0,0.0,0.0,6.039686826754574,-98.02521403964431,0.0,0.0
10.4,55.63415969133921,-9.801138188946904,0.0,-1.3542030269521799,-9.907882425715071,0.0,0.0,0.0,-97.78292465134787,1.0504828131471098,-0.1435793183852187,0.0,0.0,0.0,6.074782588068041,-97.78292465134787,0.0,0.0
10.44,55.58083373671024,-10.19756737727845,0.0,-1.3120502138371428,-9.913552553770515,0.0,0.0,0.0,-97.53923143259888,1.0571564018935844,-0.13991374692780895,0.0,0.0,0.0,6.1098783493815105,-97.53923143259888,0.0,0.0
10.48,55.5291992311309,-10.594220416904928,0.0,-1.2696306341424892,-9.919074455454346,0.0,0.0,0.0,-97.29413438339735,1.0638210396789451,-0.13616792446587536,0.0,0.0,0.0,6.144974110694978,-97.29413438339735,0.0,0.0
10.52,55.479266837939036,-10.991091314450383,0.0,-1.2269446582659136,-9.924444911709307,0.0,0.0,0.0,-97.04763350374328,1.070476106905185,-0.13234140073859263,0.0,0.0,0.0,6.180069872008447,-97.04763350374328,0.0,0.0
10.56,55.43104720515829,-11.38817394741724,0.0,-1.183992681585559,-9.929660685539654,0.0,0.0,0.0,-96.79972879363669,1.0771209741412548,-0.1284337291024204,0.0,0.0,0.0,6.215165633321915,-96.79972879363669,0.0,0.0
10.6,55.384550964491,-11.785462063471865,0.0,-1.1407751248541198,-9.934718522158244,0.0,0.0,0.0,-96.55042025307755,1.0837550020841715,-0.12444446665060283,0.0,0.0,0.0,6.250261394635384,-96.55042025307755,0.0,0.0
10.64,55.33978873029531,-12.182949279735798,0.0,-1.0972924345944848,-9.939615149138406,0.0,0.0,0.0,-96.29970788206589,1.0903775415211872,-0.12037317433428445,0.0,0.0,0.0,6.2853571559488515,-96.29970788206589,0.0,0.0
10.68,55.29677109854642,-12.58062908208333,0.0,-1.0535450834968572,-9.944347276570726,0.0,0.0,0.0,-96.04759168060164,1.0969879332930608,-0.1162194170852439,0.0,0.0,0.0,6.320452917262322,-96.04759168060164,0.0,0.0
10.72,55.255508645781966,-12.978494824445363,0.0,-1.0095335708173427,-9.948911597224733,0.0,0.0,0.0,-95.79407164868489,1.1035855082584491,-0.11198276394024914,0.0,0.0,0.0,6.355548678575789,-95.79407164868489,0.0,0.0
10.76,55.21601192803132,-13.376539728119997,0.0,-0.9652584227779095,-9.95330478671563,0.0,0.0,0.0,-95.53914778631561,1.110169587259456,-0.10766278816703147,0.0,0.0,0.0,6.390644439889258,-95.53914778631561,0.0,0.0
10.8,55.178291479729026,-13.774756881089662,0.0,-0.9207201929677357,-9.957523503676075,0.0,0.0,0.0,-95.28282009349377,1.1167394810883553,-0.10325906739188428,0.0,0.0,0.0,6.425740201202726,-95.28282009349377,0.0,0.0
10.84,55.14235781261192,-14.17313923734541,0.0,-0.8759194627458373,-9.961564389933091,0.0,0.0,0.0,-95.02508857021938,1.123294490455534,-0.09877118372888205,0.0,0.0,0.0,6.460835962516195,-95.02508857021938,0.0,0.0
10.88,55.108221414600436,-14.571679616218287,0.0,-0.830856841644973,-9.965424070690204,0.0,0.0,0.0,-94.76595321649248,1.1298339059586646,-0.09419872391072295,0.0,0.0,0.0,6.4959317238296626,-94.76595321649248,0.0,0.0
10.92,55.07589274866344,-14.970370701718064,0.0,-0.7855329677767408,-9.969099154714826,0.0,0.0,0.0,-94.50541403231303,1.1363570080531589,-0.08954127942119262,0.0,0.0,0.0,6.531027485143132,-94.50541403231303,0.0,0.0
10.96,55.04538225166698,-15.369205041879784,0.0,-0.739948508237841,-9.97258623453097,0.0,0.0,0.0,-94.24347101768105,1.1428630670239084,-0.08479844662924971,0.0,0.0,0.0,6.566123246456599,-94.24347101768105,0.0,0.0
11.0,55.01670033320676,-15.768175048117815,0.0,-0.694104159517437,-9.975881886617373,0.0,0.0,0.0,-93.9801241725965,1.1493513429583682,-0.07996982692473155,0.0,0.0,0.0,6.6012190077700685,-93.9801241725965,0.0,0.0
11.040000000000001,54.989857374424226,-16.167272994588213,0.0,-0.6480006479055761,-9.978982671611067,0.0,0.0,0.0,-93.71537349705945,1.1558210857209892,-0.07505502685567933,0.0,0.0,0.0,6.636314769083537,-93.71537349705945,0.0,0.0
11.08,54.96486372680646,-16.56649101755904,0.0,-0.6016387299025902,-9.981885134516485,0.0,0.0,0.0,-93.44921899106984,1.16227153492905,-0.07005365826727875,0.0,0.0,0.0,6.671410530397005,-93.44921899106984,0.0,0.0
11.120000000000001,54.94172971096942,-16.96582111478957,0.0,-0.5550191926294425,-9.98458580492015,0.0,0.0,0.0,-93.1816606546277,1.1687019199299091,-0.06496533844241575,0.0,0.0,0.0,6.706506291710474,-93.1816606546277,0.0,0.0
11.16,54.92046561542499,-17.36525514491778,0.0,-0.508142854238965,-9.987081197211019,0.0,0.0,0.0,-92.91269848773302,1.175111459779711,-0.05978969024384535,0.0,0.0,0.0,6.741602053023943,-92.91269848773302,0.0,0.0
11.200000000000001,54.9010816953314,-17.76478482685705,0.0,-0.46101056432789145,-9.989367810806552,0.0,0.0,0.0,-92.6423324903858,1.1814993632235773,-0.05452634225796591,0.0,0.0,0.0,6.77669781433741,-92.6423324903858,0.0,0.0
11.24,54.883588171227316,-18.164401739201836,0.0,-0.41362320434968325,-9.991442130384558,0.0,0.0,0.0,-92.37056266258604,1.1878648286773206,-0.04917492894020198,0.0,0.0,0.0,6.81179357565088,-92.37056266258604,0.0,0.0
11.28,54.867995227749205,-18.5640973196429,0.0,-0.36598168802803915,-9.993300626120888,0.0,0.0,0.0,-92.09738900433373,1.1942070442107042,-0.043735090761986006,0.0,0.0,0.0,6.846889336964348,-92.09738900433373,0.0,0.0
11.32,54.854313012332256,-18.963862864392066,0.0,-0.3180869617710414,-9.994939753933052,0.0,0.0,0.0,-91.8228115156289,1.2005251875322884,-0.03820647435933641,0.0,0.0,0.0,6.881985098277817,-91.8228115156289,0.0,0.0
11.36,54.84255163389479,-19.363689527616767,0.0,-0.26994000508588234,-9.99635595572978,0.0,0.0,0.0,-91.54683019647152,1.2068184259758925,-0.03258873268302763,0.0,0.0,0.0,6.917080859591285,-91.54683019647152,0.0,0.0
11.4,54.83272116150589,-19.763568320884957,0.0,-0.2215418309940949,-9.997545659666665,0.0,0.0,0.0,-91.2694450468616,1.2130859164887078,-0.026881525150345607,0.0,0.0,0.0,6.952176620904755,-91.2694450468616,0.0,0.0
11.44,54.8248316230366,-20.163490112620032,0.0,-0.17289348644723454,-9.998505280407873,0.0,0.0,0.0,-90.99065606679915,1.2193268056210904,-0.021084517798424362,0.0,0.0,0.0,6.9872723822182214,-90.99065606679915,0.0,0.0
11.48,54.81889300379432,-20.563445627566598,0.0,-0.12399605274292098,-9.999231219394028,0.0,0.0,0.0,-90.71046325628416,1.2255402295180793,-0.015197383439154478,0.0,0.0,0.0,7.022368143531691,-90.71046325628416,0.0,0.0
11.52,54.81491524514075,-20.963425446266978,0.0,-0.07485064594119421,-9.999719865116333,0.0,0.0,0.0,-90.42886661531664,1.2317253139126554,-0.009219801815659153,0.0,0.0,0.0,7.057463904845158,-90.42886661531664,0.0,0.0
11.56,54.81290824309296,-21.363420004548832,0.0,-0.025458417281099224,-9.999967593396967,0.0,0.0,0.0,-90.14586614389657,1.2378811741207976,-0.003151459760328973,0.0,0.0,0.0,7.0925596661586265,-90.14586614389657,0.0,0.0
11.6,54.81288184690792,-21.76341959302408,0.0,0.02417944640256057,-9.999970767675856,0.0,0.0,0.0,-89.86146184202394,1.2440069150383515,0.0030079486455914352,0.0,0.0,0.0,7.127655427472096,-89.86146184202394,0.0,0.0
11.64,54.814845857650376,-22.163414356599443,0.0,0.07406172226238415,-9.99972573930383,0.0,0.0,0.0,-89.5756537096988,1.2501016311397575,0.009258721910874302,0.0,0.0,0.0,7.162751188785563,-89.5756537096988,0.0,0.0
11.68,54.818810026743954,-22.563394293998947,0.0,0.12418715102153381,-9.999228847842275,0.0,0.0,0.0,-89.28844174692112,1.25616440647867,0.01560115097164767,0.0,0.0,0.0,7.1978469500990325,-89.28844174692112,0.0,0.0
11.72,54.82478405450568,-22.963349257298297,0.0,0.17455443655694147,-9.998476421369322,0.0,0.0,0.0,-88.9998259536909,1.262194314690501,0.022035519027208097,0.0,0.0,0.0,7.232942711412501,-88.9998259536909,0.0,0.0
11.76,54.83277758866379,-23.363268951471902,0.0,0.2251622454826602,-9.997464776792626,0.0,0.0,0.0,-88.70980633000812,1.2681904189969293,0.028562101374319984,0.0,0.0,0.0,7.268038472725968,-88.70980633000812,0.0,0.0
11.8,54.84280022285889,-23.76314293395239,0.0,0.2760092067334363,-9.9961902201688,0.0,0.0,0.0,-88.41838287587284,1.274151772212404,0.03518116524001171,0.0,0.0,0.0,7.303134234039438,-88.41838287587284,0.0,0.0
11.84,54.854861495128446,-24.162960614203044,0.0,0.32709391114859715,-9.994649047029592,0.0,0.0,0.0,-88.12555559128499,1.280077416752686,0.04189296961288182,0.0,0.0,0.0,7.338229995352906,-88.12555559128499,0.0,0.0
11.88,54.86897088637464,-24.562711253303465,0.0,0.3784149110562935,-9.992837542714796,0.0,0.0,0.0,-87.83132447624462,1.2859663846454572,0.048697765072921374,0.0,0.0,0.0,7.373325756666375,-87.83132447624462,0.0,0.0
11.92,54.88513781881569,-24.962383963548593,0.0,0.4299707198582347,-9.990751982712041,0.0,0.0,0.0,-87.53568953075168,1.2918176975430398,0.05559579361987224,0.0,0.0,0.0,7.408421517979844,-87.53568953075168,0.0,0.0
11.96,54.90337165442037,-25.361967708061737,0.0,0.4817598116149553,-9.98838863300346,0.0,0.0,0.0,-87.23865075480623,1.297630366737259,0.06258728850012807,0.0,0.0,0.0,7.443517279293311,-87.23865075480623,0.0,0.0
12.0,54.9236816933262,-25.76145130042109,0.0,0.5337806206317335,-9.985743750419294,0.0,0.0,0.0,-86.94020814840825,1.3034033931764877,0.06967247403219613,0.0,0.0,0.0,7.47861304060678,-86.94020814840825,0.0,0.0
12.040000000000001,54.9460771722409,-26.160823404301173,0.0,0.5860315410452396,-9.98281358299854,0.0,0.0,0.0,-86.6403617115577,1.309135767484909,0.07685156543073313,0.0,0.0,0.0,7.513708801920249,-86.6403617115577,0.0,0.0
12.08,54.9705672628274,-26.560072533128253,0.0,0.638510926410971,-9.979594370356633,0.0,0.0,0.0,-86.33911144425463,1.3148264699840357,0.08412476862916539,0.0,0.0,0.0,7.548804563233718,-86.33911144425463,0.0,0.0
12.120000000000001,54.99716107007238,-26.95918704975104,0.0,0.6912170892916296,-9.976082344060277,0.0,0.0,0.0,-86.03645734649902,1.3204744707165266,0.09149228010091771,0.0,0.0,0.0,7.583900324547186,-86.03645734649902,0.0,0.0
12.16,55.02585356965537,-27.358156198018097,0.0,0.7429736789636834,-9.972361310761217,0.0,0.0,0.0,-85.73914818819307,1.260667666597455,0.09392388272090968,0.0,0.0,0.0,7.243112680513797,-85.73914818819307,0.0,0.0
12.200000000000001,55.05656312246211,-27.756975204885965,0.0,0.7920558252395515,-9.968583027176134,0.0,0.0,0.0,-85.45709593386651,1.1934473396303211,0.09482560509290519,0.0,0.0,0.0,6.8595000358144045,-85.45709593386651,0.0,0.0
12.24,55.08918219751548,-28.15564261892364,0.0,0.8384501161692816,-9.964788076155745,0.0,0.0,0.0,-85.19038818532795,1.1262757223291795,0.09476629136601246,0.0,0.0,0.0,6.475887391115011,-85.19038818532795,0.0,0.0
12.280000000000001,55.12360332080157,-28.5541585278057,0.0,0.8821585904551904,-9.961013814933002,0.0,0.0,0.0,-84.93902494257733,1.059157121678695,0.09380014633951579,0.0,0.0,0.0,6.092274746415616,-84.93902494257733,0.0,0.0
12.32,55.15971910297094,-28.95252447014214,0.0,0.9231834345080376,-9.957295433311696,0.0,0.0,0.0,-84.7030062056147,0.992094628239757,0.0919813349306981,0.0,0.0,0.0,5.708662101716223,-84.7030062056147,0.0,0.0
12.36,55.19742224429317,-29.350743348815733,0.0,0.9615269352446805,-9.953665955455758,0.0,0.0,0.0,-84.48233197444004,0.925090188873759,0.08936397284310713,0.0,0.0,0.0,5.325049457016829,-84.48233197444004,0.0,0.0
12.4,55.23660553778158,-29.748819344397887,0.0,0.9971914357938777,-9.95015624200843,0.0,0.0,0.0,-84.27700224905335,0.8581446794234476,0.0860021193818375,0.0,0.0,0.0,4.941436812317435,-84.27700224905335,0.0,0.0
12.44,55.27716187060422,-30.146757828654412,0.0,1.030179294108116,-9.94679499245817,0.0,0.0,0.0,-84.08701702945466,0.7912579773282682,0.08194977227936259,0.0,0.0,0.0,4.55782416761804,-84.08701702945466,0.0,0.0
12.48,55.31898422389746,-30.54456527814962,0.0,1.0604928444784218,-9.943608747673556,0.0,0.0,0.0,-83.91237631564393,0.724429034156982,0.07726086439549794,0.0,0.0,0.0,4.174211522918648,-83.91237631564393,0.0,0.0
12.52,55.36196567109817,-30.942249187953927,0.0,1.0881343619486112,-9.94062189253503,0.0,0.0,0.0,-83.75308010762117,0.6576559480448532,0.07198926215520712,0.0,0.0,0.0,3.790598878219254,-83.75308010762117,0.0,0.0
12.56,55.40599937491035,-31.339817985457596,0.0,1.1131060296249813,-9.937856658596587,0.0,0.0,0.0,-83.60912840538639,0.5909360360269019,0.06618876558812428,0.0,0.0,0.0,3.4069862335198597,-83.60912840538639,0.0,0.0
12.6,55.45097858302206,-31.73728094429047,0.0,1.1354099088771434,-9.935333126716165,0.0,0.0,0.0,-83.48052120893959,0.5242659062625737,0.0599131098338649,0.0,0.0,0.0,3.023373588820466,-83.48052120893959,0.0,0.0
12.64,55.49679662268804,-32.134648098345366,0.0,1.155047912425681,-9.933069229598729,0.0,0.0,0.0,-83.36725851828076,0.45764153015072423,0.053215967977426684,0.0,0.0,0.0,2.6397609441210728,-83.36725851828076,0.0,0.0
12.68,55.543346894293585,-32.531930155900625,0.0,1.1720217803122144,-9.931080754201618,0.0,0.0,0.0,-83.26934033340991,0.39105831433701654,0.04615095507920977,0.0,0.0,0.0,2.2561482994216777,-83.26934033340991,0.0,0.0
12.72,55.59052286401475,-32.92913841383529,0.0,1.1863330587477046,-9.92938134395705,0.0,0.0,0.0,-83.18676665432703,0.32451117261871776,0.0387716332644292,0.0,0.0,0.0,1.8725356547222844,-83.18676665432703,0.0,0.0
12.76,55.638218055690025,-33.32628467192896,0.0,1.1979830818350128,-9.927982500772103,0.0,0.0,0.0,-83.11953748103213,0.25799459775443007,0.03113151773692186,0.0,0.0,0.0,1.488923010022891,-83.11953748103213,0.0,0.0
12.8,55.68632604201826,-33.72338114723652,0.0,1.206972956162106,-9.92689358677191,0.0,0.0,0.0,-83.0676528135252,0.19150273318852454,0.023284083582570128,0.0,0.0,0.0,1.1053103653234966,-83.0676528135252,0.0,0.0
12.84,55.73474043519778,-34.120440388527,0.0,1.213303548262736,-9.92612182575718,0.0,0.0,0.0,-83.03111265180625,0.12502944470195365,0.01528277322776341,0.0,0.0,0.0,0.721697720624117,-83.03111265180625,0.0,0.0
12.88,55.78335487712116,-34.51747519077469,0.0,1.2169754749418802,-9.925672304352485,0.0,0.0,0.0,-83.00991699587529,0.058568392002670756,0.007181004418489339,0.0,0.0,0.0,0.3380850759247096,-83.00991699587529,0.0,0.0
12.92,55.83206302924029,-34.9144985096895,0.0,1.2179890964638458,-9.925547972827252,0.0,0.0,0.0,-83.00406584573228,-0.007886899729778693,-0.0009678214142002506,0.0,0.0,0.0,-0.04552756877467095,-83.00406584573228,0.0,0.0
12.96,55.880758562216215,-35.31152337627371,0.0,1.216344512601488,-9.925749645576612,0.0,0.0,0.0,-83.01355920137725,-0.07434296833016166,-0.009110310536514165,0.0,0.0,0.0,-0.4291402134740783,-83.01355920137725,0.0,0.0
13.0,55.929335145468116,-35.70856281139062,0.0,1.2120415615456555,-9.926276001254749,0.0,0.0,0.0,-83.0383970628102,-0.14080634314777646,-0.017193068176100623,0.0,0.0,0.0,-0.8127528581734589,-83.0383970628102,0.0,0.0
13.040000000000001,55.9776864367359,-36.10562974033196,0.0,1.2050798216746075,-9.927123582558682,0.0,0.0,0.0,-83.07857943003111,-0.2072834735448037,-0.025162689802143267,0.0,0.0,0.0,-1.1963655028728661,-83.07857943003111,0.0,0.0
13.08,56.02570607177073,-36.50273690736929,0.0,1.195458616183809,-9.9282867956658,0.0,0.0,0.0,-83.13410630304003,-0.2737806573763492,-0.03296575255540605,0.0,0.0,0.0,-1.5799781475722459,-83.13410630304003,0.0,0.0
13.120000000000001,56.07328765426802,-36.899896790276514,0.0,1.1831770205771601,-9.929757909333851,0.0,0.0,0.0,-83.20497768183691,-0.34030396943639807,-0.04054880696233913,0.0,0.0,0.0,-1.963590792271653,-83.20497768183691,0.0,0.0
13.16,56.12032474615733,-37.29712151480949,0.0,1.1682338730213162,-9.931527053677376,0.0,0.0,0.0,-83.29119356642175,-0.40685918985428393,-0.04785836906740257,0.0,0.0,0.0,-2.3472034369710344,-83.29119356642175,0.0,0.0
13.200000000000001,56.16671085836367,-37.694422769130924,0.0,1.1506277875653839,-9.933582218640082,0.0,0.0,0.0,-83.39275395679458,-0.47345173242758715,-0.0548409131179197,0.0,0.0,0.0,-2.7308160816704423,-83.39275395679458,0.0,0.0
13.24,56.212339442155,-38.091811718168046,0.0,1.1303571702287905,-9.935909252187862,0.0,0.0,0.0,-83.50965885295538,-0.5400865728784087,-0.06144286493588645,0.0,0.0,0.0,-3.1144287263698214,-83.50965885295538,0.0,0.0
13.280000000000001,56.257103881190694,-38.4892989178934,0.0,1.1074202379606208,-9.938491858252702,0.0,0.0,0.0,-83.64190825490417,-0.6067681770219168,-0.06761059611137812,0.0,0.0,0.0,-3.4980413710692293,-83.64190825490417,0.0,0.0
13.32,56.30089748438577,-38.886894229518504,0.0,1.0818150404741385,-9.941311594462972,0.0,0.0,0.0,-83.78950216264091,-0.673500428837752,-0.07329041915236549,0.0,0.0,0.0,-3.8816540157686084,-83.78950216264091,0.0,0.0
13.36,56.34361347970616,-39.28460673359359,0.0,1.053539484960486,-9.94434786970112,0.0,0.0,0.0,-83.95244057616564,-0.740286558437479,-0.07842858372600686,0.0,0.0,0.0,-4.265266660468016,-83.95244057616564,0.0,0.0
13.4,56.38514500901014,-39.6824446440065,0.0,1.022591363685879,-9.947577941535068,0.0,0.0,0.0,-84.13072349547835,-0.807129069923605,-0.08297127412668735,0.0,0.0,0.0,-4.648879305167398,-84.13072349547835,0.0,0.0
13.44,56.42538512405142,-40.08041522187763,0.0,0.9889683844766067,-9.950976913575156,0.0,0.0,0.0,-84.32435092057902,-0.874029669138947,-0.08686460810634249,0.0,0.0,0.0,-5.032491949866805,-84.32435092057902,0.0,0.0
13.48,56.46422678375938,-40.47852468934815,0.0,0.9526682040962399,-9.954517732813782,0.0,0.0,0.0,-84.53332285146767,-0.940989191308113,-0.09005463720280893,0.0,0.0,0.0,-5.4161045945661845,-84.53332285146767,0.0,0.0
13.52,56.50156285291247,-40.87677814326294,0.0,0.9136884645192439,-9.958171187010418,0.0,0.0,0.0,-84.75763928814432,-1.00800752857678,-0.09248734870219223,0.0,0.0,0.0,-5.799717239265592,-84.75763928814432,0.0,0.0
13.56,56.537286102320365,-41.275179468750544,0.0,0.8720268321049274,-9.961905902190054,0.0,0.0,0.0,-84.99730023060891,-1.0750835574580884,-0.09410866937140709,0.0,0.0,0.0,-6.183329883964973,-84.99730023060891,0.0,0.0
13.6,56.57128921063128,-41.67373125270697,0.0,0.8276810396751422,-9.965688340328644,0.0,0.0,0.0,-85.25230567886152,-1.142215066200052,-0.09486447109722618,0.0,0.0,0.0,-6.566942528664381,-85.25230567886152,0.0,0.0
13.64,56.603464767880425,-42.07243469719147,0.0,0.7806489314986165,-9.969482797304485,0.0,0.0,0.0,-85.52265563290206,-1.2093986820921767,-0.0947005785682643,0.0,0.0,0.0,-6.95055517336376,-85.52265563290206,0.0,0.0
13.68,56.63370528089608,-42.47128953274763,0.0,0.7309285111837949,-9.973251401200043,0.0,0.0,0.0,-85.8083500927306,-1.2766297987347124,-0.09356277913637591,0.0,0.0,0.0,-7.334167818063167,-85.8083500927306,0.0,0.0
13.72,56.66190318067951,-42.870293931664484,0.0,0.678517992481264,-9.976954111044073,0.0,0.0,0.0,-86.10938905834709,-1.3439025032989218,-0.09139683499391225,0.0,0.0,0.0,-7.717780462762547,-86.10938905834709,0.0,0.0
13.76,56.68795083187519,-43.269444421198244,0.0,0.6234158529953111,-9.980548716089418,0.0,0.0,0.0,-86.42577252975158,-1.4112095038126355,-0.08814849780315041,0.0,0.0,0.0,-8.101393107461954,-86.42577252975158,0.0,0.0
13.8,56.71174054444765,-43.66873579677699,0.0,0.5656208908029716,-9.983990835727328,0.0,0.0,0.0,-86.75750050694404,-1.4785420565109806,-0.08376352591398135,0.0,0.0,0.0,-8.485005752161335,-86.75750050694404,0.0,0.0
13.84,56.733164587681166,-44.068161035216946,0.0,0.5051322839769172,-9.987233920144469,0.0,0.0,0.0,-87.10457298992449,-1.5458898932987037,-0.07818770430556926,0.0,0.0,0.0,-8.868618396860745,-87.10457298992449,0.0,0.0
13.88,56.75211520661838,-44.46771120798121,0.0,0.44194965300681344,-9.990229251834371,0.0,0.0,0.0,-87.46698997869288,-1.6132411493767878,-0.07136686738719944,0.0,0.0,0.0,-9.252231041560124,-87.46698997869288,0.0,0.0
13.92,56.76848464105356,-44.86737539451855,0.0,0.3760731261112655,-9.992925948080316,0.0,0.0,0.0,-87.84475147324927,-1.6805822910932353,-0.06324692479284107,0.0,0.0,0.0,-9.635843686259529,-87.84475147324927,0.0,0.0
13.96,56.782165147196075,-45.26714059572237,0.0,0.3075034074302399,-9.995270964532118,0.0,0.0,0.0,-88.23785747359362,-1.7478980440848098,-0.05377389030312202,0.0,0.0,0.0,-10.019456330958912,-88.23785747359362,0.0,0.0
14.0,56.79304902211887,-45.66699164755731,0.0,0.23624184808468204,-9.997209100004538,0.0,0.0,0.0,-88.64630797972598,-1.8151713217843484,-0.04289391402731138,0.0,0.0,0.0,-10.403068975658321,-88.64630797972598,0.0,0.0
14.040000000000001,56.80102863110647,-46.06691113490397,0.0,0.16229052008723566,-9.998683002630388,0.0,0.0,0.0,-89.07010299164627,-1.8823831543757978,-0.03055331797665076,0.0,0.0,0.0,-10.786681620357697,-89.07010299164627,0.0,0.0
14.08,56.80599643801607,-46.46687930567949,0.0,0.08565229308425613,-9.999633177506533,0.0,0.0,0.0,-89.50924250935456,-1.9495126182875628,-0.01669863515880083,0.0,0.0,0.0,-11.170294265057107,-89.50924250935456,0.0,0.0
14.120000000000001,56.80784503876456,-46.86687398529591,0.0,0.00633091390576213,-9.999997995976255,0.0,0.0,0.0,-89.96372653285081,-2.016536766322904,-0.0012766523213835835,0.0,0.0,0.0,-11.553906909756488,-89.96372653285081,0.0,0.0
14.16,56.80646719805331,-47.26687049152533,0.0,-0.0756689111044345,-9.99971370669642,0.0,0.0,0.0,-90.43355506213507,-2.0834305585351713,0.01576554352956,0.0,0.0,0.0,-11.937519554455895,-90.43355506213507,0.0,0.0
14.200000000000001,56.801755889441125,-47.666841549845664,0.0,-0.16034143101035012,-9.998714448642964,0.0,0.0,0.0,-90.91872809720726,-2.1501667939643743,0.034480514712766475,0.0,0.0,0.0,-12.321132199155276,-90.91872809720726,0.0,0.0
14.24,56.793604338874765,-48.066757209348395,0.0,-0.24767976249430235,-9.996932266213008,0.0,0.0,0.0,-91.41924563806748,-2.216716043361177,0.05492041843602378,0.0,0.0,0.0,-12.70474484385468,-91.41924563806748,0.0,0.0
14.280000000000001,56.7819060717846,-48.46658475929462,0.0,-0.3376757993982492,-9.99429712658678,0.0,0.0,0.0,-91.93510768471562,-2.283046583033727,0.07713694822405591,0.0,0.0,0.0,-13.088357488554061,-91.93510768471562,0.0,0.0
14.32,56.76655496385112,-48.86628864641402,0.0,-0.430320119643962,-9.990736939517005,0.0,0.0,0.0,-92.46631423715178,-2.3491243299627897,0.101181271096204,0.0,0.0,0.0,-13.47197013325347,-92.46631423715178,0.0,0.0
14.36,56.74744529554628,-49.26583039304634,0.0,-0.5256018895856356,-9.986177579718078,0.0,0.0,0.0,-93.01286529537586,-2.4149127783404714,0.12710396038401736,0.0,0.0,0.0,-13.85558277795285,-93.01286529537586,0.0,0.0
14.4,56.724471810550995,-49.66516851623389,0.0,-0.6235087658553763,-9.980542912031465,0.0,0.0,0.0,-93.57476085938798,-2.480372937698384,0.15495492408344427,0.0,0.0,0.0,-14.239195422652259,-93.57476085938798,0.0,0.0
14.44,56.69752977814794,-50.064258447878615,0.0,-0.7240267947684049,-9.973754819548022,0.0,0.0,0.0,-94.15200092918803,-2.5454632728013324,0.1847833286411748,0.0,0.0,0.0,-14.622808067351636,-94.15200092918803,0.0,0.0
14.48,56.66651505968566,-50.46305245608684,0.0,-0.8271403093625391,-9.965733234871765,0.0,0.0,0.0,-94.7445855047761,-2.6101396454935815,0.2166375180803011,0.0,0.0,0.0,-15.006420712051046,-94.7445855047761,0.0,0.0
14.52,56.631324179207105,-50.86149956783001,0.0,-0.9328318241537342,-9.95639617471332,0.0,0.0,0.0,-95.35251458615208,-2.6743552586953374,0.25056492837637967,0.0,0.0,0.0,-15.390033356750424,-95.35251458615208,0.0,0.0
14.56,56.59185439833209,-51.2595454930594,0.0,-1.0410819276980758,-9.945659778004698,0.0,0.0,0.0,-95.9757881733161,-2.7380606027584293,0.28661199700174933,0.0,0.0,0.0,-15.773646001449832,-95.9757881733161,0.0,0.0
14.6,56.54800379547958,-51.65713255041868,0.0,-1.1518691730586874,-9.93343834773021,0.0,0.0,0.0,-96.61440626626803,-2.80120340440098,0.3248240675630527,0.0,0.0,0.0,-16.157258646149216,-96.61440626626803,0.0,0.0
14.64,56.49967134951132,-52.05419959470772,0.0,-1.2651699662855953,-9.919644396671128,0.0,0.0,0.0,-97.26836886500801,-2.86372857845246,0.3652452894649782,0.0,0.0,0.0,-16.54087129084862,-97.26836886500801,0.0,0.0
14.68,56.446757027874185,-52.45068194625736,0.0,-1.380958453025474,-9.90418869726428,0.0,0.0,0.0,-97.9376759695359,-2.9255781826515164,0.40791851254161454,0.0,0.0,0.0,-16.924483935548,-97.9376759695359,0.0,0.0
14.72,56.38916187931337,-52.84651132238468,0.0,-1.4992064033887194,-9.886980335776856,0.0,0.0,0.0,-98.62232757985181,-2.986691375750633,0.4528851766062894,0.0,0.0,0.0,-17.30809658024741,-98.62232757985181,0.0,0.0
14.76,56.326788131223495,-53.241615771104385,0.0,-1.6198830952111059,-9.86792677100156,0.0,0.0,0.0,-99.32232369595567,-3.0470043791928125,0.5001851958805813,0.0,0.0,0.0,-17.691709224946788,-99.32232369595567,0.0,0.0
14.8,56.25953929169889,-53.635919607282496,0.0,-1.7429551958586795,-9.84693389767745,0.0,0.0,0.0,-100.03766431784756,-3.1064504426370556,0.5498568382741779,0.0,0.0,0.0,-18.075321869646196,-100.03766431784756,0.0,0.0
14.84,56.18732025633821,-54.02934335142414,0.0,-1.8683866427352924,-9.823906114842933,0.0,0.0,0.0,-100.76834944552732,-3.164959813620473,0.6019365994986422,0.0,0.0,0.0,-18.458934514345575,-100.76834944552732,0.0,0.0
14.88,56.11003741985179,-54.42180367129818,0.0,-1.9961385226644683,-9.798746399327564,0.0,0.0,0.0,-101.51437907899515,-3.222459711656329,0.6564590720107687,0.0,0.0,0.0,-18.842547159044987,-101.51437907899515,0.0,0.0
14.92,56.0275987925133,-54.81321332660722,0.0,-2.126168950328898,-9.771356384589465,0.0,0.0,0.0,-102.27575321825088,-3.278874307078055,0.7134568087942522,0.0,0.0,0.0,-19.226159803744363,-102.27575321825088,0.0,0.0
14.96,55.939914121489316,-55.20348111692183,0.0,-2.258432945964114,-9.741636445104275,0.0,0.0,0.0,-103.05247186329468,-3.334124704950448,0.7729601820028065,0.0,0.0,0.0,-19.60977244844377,-103.05247186329468,0.0,0.0
15.0,55.84689501707266,-55.59251183310452,0.0,-2.3928823125153005,-9.709485786510603,0.0,0.0,0.0,-103.84453501412636,-3.38812893437957,0.8349972365026576,0.0,0.0,0.0,-19.993385093143154,-103.84453501412636,0.0,0.0
15.040000000000001,55.74845508383649,-55.980206212458285,0.0,-2.5294655124803294,-9.674802541714877,0.0,0.0,0.0,-104.65194267074608,-3.4408019435634656,0.8995935383686273,0.0,0.0,0.0,-20.376997737842558,-104.65194267074608,0.0,0.0
15.08,55.64451005671704,-56.36646089784157,0.0,-2.6681275446753174,-9.63748387315615,0.0,0.0,0.0,-105.47469483315376,-3.492055600935526,0.9667720184046873,0.0,0.0,0.0,-20.76061038254194,-105.47469483315376,0.0,0.0
15.120000000000001,55.534977942023104,-56.75116840100071,0.0,-2.8088098211739365,-9.597426081428127,0.0,0.0,0.0,-106.31279150134941,-3.5417987027621174,1.036552810778097,0.0,0.0,0.0,-21.144223027241345,-106.31279150134941,0.0,0.0
15.16,55.41977916336012,-57.134217070377204,0.0,-2.951450044685749,-9.554524720451797,0.0,0.0,0.0,-107.166232675333,-3.589936987564974,1.1089530868749107,0.0,0.0,0.0,-21.527835671940725,-107.166232675333,0.0,0.0
15.200000000000001,55.29883671244558,-57.515491063656455,0.0,-3.0959820866543497,-9.508674719387312,0.0,0.0,0.0,-108.03501835510465,-3.6363731577476055,1.183986884504838,0.0,0.0,0.0,-21.911448316640136,-108.03501835510465,0.0,0.0
15.24,55.1720763047814,-57.89487032533049,0.0,-3.2423358663709614,-9.45977051146826,0.0,0.0,0.0,-108.91914854066418,-3.6810069088127273,1.2616649326042007,0.0,0.0,0.0,-22.295060961339516,-108.91914854066418,0.0,0.0
15.280000000000001,55.03942654013605,-58.27223056955579,0.0,-3.3904372314152615,-9.407706169935008,0.0,0.0,0.0,-109.81862323201176,-3.723734966565199,1.3419944716080277,0.0,0.0,0.0,-22.67867360603892,-109.81862323201176,0.0,0.0
15.32,54.90081906777728,-58.64744326859288,0.0,-3.5402078397505394,-9.352375551236639,0.0,0.0,0.0,-110.73344242914725,-3.764451132701284,1.4249790696851026,0.0,0.0,0.0,-23.0622862507383,-110.73344242914725,0.0,0.0
15.36,54.75618875638208,-59.02037564712253,0.0,-3.6915650438170884,-9.293672445662573,0.0,0.0,0.0,-111.6636061320708,-3.8030463391909572,1.5106184350542806,0.0,0.0,0.0,-23.44589889543771,-111.6636061320708,0.0,0.0
15.4,54.605473868537125,-59.39089068273788,0.0,-3.84442177698344,-9.231490735555958,0.0,0.0,0.0,-112.6091143407823,-3.839408711864566,1.598908224625234,0.0,0.0,0.0,-23.829511540137112,-112.6091143407823,0.0,0.0
15.44,54.44861623972765,-59.75884711291952,0.0,-3.998686442732186,-9.165724561250453,0.0,0.0,0.0,-113.56996705528172,-3.8734236436191583,1.6898398492333888,0.0,0.0,0.0,-24.2131241848365,-113.56996705528172,0.0,0.0
15.48,54.2855614616977,-60.1240994488045,0.0,-4.154262806973375,-9.096268494860828,0.0,0.0,0.0,-114.54616427556913,-3.9049738776623872,1.7834002757658982,0.0,0.0,0.0,-24.596736829535878,-114.54616427556913,0.0,0.0
15.52,54.11625907004852,-60.48649799606607,0.0,-4.31104989389539,-9.023017722045354,0.0,0.0,0.0,-115.53770600164455,-3.933939601213493,1.879571826503951,0.0,0.0,0.0,-24.980349474235283,-115.53770600164455,0.0,0.0
15.56,53.94066273592511,-60.84588888322504,0.0,-4.468941885779981,-8.945868231844312,0.0,0.0,0.0,-116.54459223350794,-3.960198550081194,1.9783319760360853,0.0,0.0,0.0,-25.363962118934694,-116.54459223350794,0.0,0.0
15.6,53.75873046162344,-61.20211409771785,0.0,-4.627828027225007,-8.864717014684151,0.0,0.0,0.0,-117.56682297115928,-3.9836261245372206,2.0796531461276366,0.0,0.0,0.0,-25.74757476363407,-117.56682297115928,0.0,0.0
15.64,53.57042477993299,-61.555011530049384,0.0,-4.7875925342349355,-8.779462268620893,0.0,0.0,0.0,-118.60439821459855,-4.004095516901765,2.183502498962701,0.0,0.0,0.0,-26.131187408333453,-118.60439821459855,0.0,0.0
15.68,53.37571295701045,-61.904415026361114,0.0,-4.948114508655874,-8.690003613878952,0.0,0.0,0.0,-119.65731796382592,-4.021477851252955,2.2898417292073843,0.0,0.0,0.0,-26.51480005303286,-119.65731796382592,0.0,0.0
15.72,53.174567198560865,-62.250154449747406,0.0,-5.109267858448202,-8.596242315723082,0.0,0.0,0.0,-120.72558221884125,-4.035642335666863,2.3986268553762997,0.0,0.0,0.0,-26.89841269773227,-120.72558221884125,0.0,0.0
15.76,52.966964859082765,-62.592055750653856,0.0,-5.270921224306174,-8.498081515680978,0.0,0.0,0.0,-121.80919097964444,-4.046456427386966,2.5098080110184693,0.0,0.0,0.0,-27.28202534243165,-121.80919097964444,0.0,0.0
15.8,52.75288865391268,-62.9299410466914,0.0,-5.4329379131493605,-8.395426471112962,0.0,0.0,0.0,-122.90814424623562,-4.0537860113126705,2.623329236273504,0.0,0.0,0.0,-27.665637987131024,-122.90814424623562,0.0,0.0
15.84,52.5323268737837,-63.26362871219968,0.0,-5.595175839026306,-8.288184803102322,0.0,0.0,0.0,-124.02244201861487,-4.057495592185176,2.739128270384677,0.0,0.0,0.0,-28.049250631830436,-124.02244201861487,0.0,0.0
15.88,52.30527360159049,-63.59293347789179,0.0,-5.757487471985664,-8.176266752615653,0.0,0.0,0.0,-125.15208429678208,-4.0574485008355055,2.8571363457918193,0.0,0.0,0.0,-28.43286327652984,-125.15208429678208,0.0,0.0
15.92,52.07172893103046,-63.91766654090942,0.0,-5.919719795484422,-8.059585444856943,0.0,0.0,0.0,-126.29707108073721,-4.053507114843953,2.9772779844639534,0.0,0.0,0.0,-28.816475921229223,-126.29707108073721,0.0,0.0
15.96,51.8316991867682,-64.23763568561465,0.0,-6.081714272916239,-7.938057161711983,0.0,0.0,0.0,-127.45740237048031,-4.045533093942265,3.0994707971688906,0.0,0.0,0.0,-29.200088565928603,-127.45740237048031,0.0,0.0
16.0,51.5851971457466,-64.55264541543887,0.0,-6.24330682385594,-7.81160162215111,0.0,0.0,0.0,-128.63307816601147,-4.033387630469526,3.2236252864149724,0.0,0.0,0.0,-29.58370121062801,-128.63307816601147,0.0,0.0
16.04,51.33224225924367,-64.86249709610448,0.0,-6.404327810628149,-7.680142270427995,0.0,0.0,0.0,-129.8240984673306,-4.016931715169907,3.3496446538383244,0.0,0.0,0.0,-29.967313855327415,-129.8240984673306,0.0,0.0
16.080000000000002,51.07286087524983,-65.16698911052725,0.0,-6.5646020358191235,-7.5436065718805505,0.0,0.0,0.0,-131.0304632744376,-3.996026418594905,3.4774246128474386,0.0,0.0,0.0,-30.350926500026794,-131.0304632744376,0.0,0.0
16.12,50.807086460715304,-65.46591702569913,0.0,-6.723948751360773,-7.401926316106767,0.0,0.0,0.0,-132.2521725873327,-3.9705331883445045,3.6068532073753277,0.0,0.0,0.0,-30.73453914472621,-132.2521725873327,0.0,0.0
16.16,50.5349598231923,-65.75907377184103,0.0,-6.882181679824386,-7.255037927253695,0.0,0.0,0.0,-133.48922640601575,-3.9403141623506803,3.737810637627858,0.0,0.0,0.0,-31.118151789425614,-133.48922640601575,0.0,0.0
16.2,50.25652933137039,-66.0462498341048,0.0,-7.039109048569603,-7.102882781121025,0.0,0.0,0.0,-134.74162473048668,-3.9052324983725484,3.8701690937554405,0.0,0.0,0.0,-31.501764434125,-134.74162473048668,0.0,0.0
16.240000000000002,49.97185114956468,-66.32723347321827,0.0,-7.194521705360685,-6.945419888753593,0.0,0.0,0.0,-136.0092691280963,-3.8590666759884513,3.9974745094663393,0.0,0.0,0.0,-31.835113921873674,-136.0092691280963,0.0,0.0
16.28,49.68101096628675,-66.60183396235621,0.0,-7.346787691696455,-6.784151429113113,0.0,0.0,0.0,-137.2800794867955,-3.7541030731052274,4.0654455518919494,0.0,0.0,0.0,-31.705404013091286,-137.2800794867955,0.0,0.0
16.32,49.3841643160771,-66.86993014015773,0.0,-7.4948401523780035,-6.620224398787586,0.0,0.0,0.0,-138.5457014491435,-3.648404512417348,4.130405101795401,0.0,0.0,0.0,-31.575694104308884,-138.5457014491435,0.0,0.0
16.36,49.081480305429245,-67.131418069555,0.0,-7.638651374213343,-6.453758996370147,0.0,0.0,0.0,-139.80613501514017,-3.5420550191703786,4.192366565739867,0.0,0.0,0.0,-31.445984195526496,-139.80613501514017,0.0,0.0
16.4,48.77312908251598,-67.38619861014132,0.0,-7.778196977063988,-6.284874842508214,0.0,0.0,0.0,-141.06138018478558,-3.4351372142673315,4.251345422998254,0.0,0.0,0.0,-31.3162742867441,-141.06138018478558,0.0,0.0
16.44,48.45928170500109,-67.63417739341355,0.0,-7.9134558569057125,-6.113690898369387,0.0,0.0,0.0,-142.31143695807964,-3.327732276430954,4.307359156832797,0.0,0.0,0.0,-31.186564377961712,-142.31143695807964,0.0,0.0
16.48,48.140110010158054,-67.87526479480793,0.0,-8.044410127428005,-5.940325386856661,0.0,0.0,0.0,-143.55630533502247,-3.219919906963733,4.360427185755963,0.0,0.0,0.0,-31.056854469179314,-143.55630533502247,0.0,0.0
16.52,47.815786487352334,-68.10937590263975,0.0,-8.171045060275043,-5.7648957165724015,0.0,0.0,0.0,-144.79598531561393,-3.1117782970617998,4.410570794851354,0.0,0.0,0.0,-30.92714456039692,-144.79598531561393,0.0,0.0
16.56,47.48648415293946,-68.33643048405622,0.0,-8.293349024029652,-5.587518408526848,0.0,0.0,0.0,-146.03047689985416,-3.0033840976368515,4.457813067230646,0.0,0.0,0.0,-30.797434651614523,-146.03047689985416,0.0,0.0
16.6,47.1523764276273,-68.55635294811272,0.0,-8.41131342203941,-5.408309025584584,0.0,0.0,0.0,-147.25978008774302,-2.8948123915991375,4.502178815699594,0.0,0.0,0.0,-30.667724742832128,-147.25978008774302,0.0,0.0
16.64,46.81363701634674,-68.76907230608134,0.0,-8.524932629182583,-5.2273821046388145,0.0,0.0,0.0,-148.48389487928068,-2.786136668552648,4.543694514703483,0.0,0.0,0.0,-30.538014834049736,-148.48389487928068,0.0,0.0
16.68,46.470439790671406,-68.97452212910072,0.0,-8.634203927669196,-5.044851091501297,0.0,0.0,0.0,-149.70282127446697,-2.6774288018528876,4.58238823261943,0.0,0.0,0.0,-30.40830492526735,-149.70282127446697,0.0,0.0
16.72,46.12295867382302,-69.17264050327583,0.0,-8.739127441970897,-4.860828278492379,0.0,0.0,0.0,-150.91655927330203,-2.5687590279759287,4.618289564460309,0.0,0.0,0.0,-30.278595016484946,-150.91655927330203,0.0,0.0
16.76,45.77136752829553,-69.36336998233456,0.0,-8.83970607297087,-4.675424744713782,0.0,0.0,0.0,-152.1251088757857,-2.4601959281468586,4.651429565052131,0.0,0.0,0.0,-30.148885107702558,-152.1251088757857,0.0,0.0
16.8,45.41584004612723,-69.54665753794913,0.0,-8.935945431423255,-4.488750298983657,0.0,0.0,0.0,-153.32847008191817,-2.3518064121743656,4.6818406827441015,0.0,0.0,0.0,-30.019175198920156,-153.32847008191817,0.0,0.0
16.84,45.05654964184706,-69.72245450782728,0.0,-9.027853770809111,-4.300913425411829,0.0,0.0,0.0,-154.52664289169928,-2.243655704437744,4.709556693707716,0.0,0.0,0.0,-29.889465290137768,-154.52664289169928,0.0,0.0
16.88,44.69366934811703,-69.89071654167921,0.0,-9.115441919674076,-4.1120212315902,0.0,0.0,0.0,-155.71962730512914,-2.135807331971505,4.7346126368786585,0.0,0.0,0.0,-29.75975538135537,-155.71962730512914,0.0,0.0
16.92,44.32737171409042,-70.05140354516375,0.0,-9.19872321353036,-3.9221793993719456,0.0,0.0,0.0,-156.90742332220765,-2.02832311459249,4.757044749592491,0.0,0.0,0.0,-29.63004547257298,-156.90742332220765,0.0,0.0
16.96,43.95782870650097,-70.20447962191719,0.0,-9.277713426403821,-3.7314921382104345,0.0,0.0,0.0,-158.09003094293493,-1.9212631570135046,4.776890403962567,0.0,0.0,0.0,-29.50033556379058,-158.09003094293493,0.0,0.0
17.0,43.58521161349637,-70.34991301376627,0.0,-9.352430702104304,-3.5400621410275863,0.0,0.0,0.0,-159.26745016731084,-1.8146858428873935,4.794188044045928,0.0,0.0,0.0,-29.37062565500819,-159.26745016731084,0.0,0.0
17.04,43.20969095122467,-70.4876760392259,0.0,-9.422895485295484,-3.347990542578932,0.0,0.0,0.0,-160.43968099533552,-1.7086478307247437,4.808977123840407,0.0,0.0,0.0,-29.240915746225795,-160.43968099533552,0.0,0.0
17.080000000000002,42.83143637318125,-70.61774503038097,0.0,-9.489130452437882,-3.15537688028166,0.0,0.0,0.0,-161.60672342700883,-1.603204051628546,4.821298046153607,0.0,0.0,0.0,-29.111205837443407,-161.60672342700883,0.0,0.0
17.12,42.45061658231886,-70.74010026824989,0.0,-9.5511604426767,-2.9623190574696445,0.0,0.0,0.0,-162.76857746233097,-1.4984077087885461,4.831192102381984,0.0,0.0,0.0,-28.981495928661,-162.76857746233097,0.0,0.0
17.16,42.067399245922566,-70.85472591672617,0.0,-9.609012388743611,-2.768913309038725,0.0,0.0,0.0,-163.92524310130167,-1.3943102786783534,4.838701413235715,0.0,0.0,0.0,-28.851786019878613,-163.92524310130167,0.0,0.0
17.2,41.68195091324685,-70.96160995519318,0.0,-9.662715247939639,-2.5752541694432454,0.0,0.0,0.0,-165.0767203439212,-1.2909615138978603,4.843868870442773,0.0,0.0,0.0,-28.72207611109621,-165.0767203439212,0.0,0.0
17.240000000000002,41.29443693591103,-71.06074410990497,0.0,-9.712299933263555,-2.3814344430046255,0.0,0.0,0.0,-166.22300919018934,-1.188409447604153,4.846738079463132,0.0,0.0,0.0,-28.592366202313823,-166.22300919018934,0.0,0.0
17.28,40.90502139104523,-71.15212378422498,0.0,-9.75779924474846,-2.187545176490392,0.0,0.0,0.0,-167.36410964010625,-1.0867003994736124,4.847353303241844,0.0,0.0,0.0,-28.46265629353143,-167.36410964010625,0.0,0.0
17.32,40.51386700717807,-71.23574798781281,0.0,-9.799247801066429,-1.9936756339221184,0.0,0.0,0.0,-168.5000216936718,-0.9858789831386856,4.8457594070273755,0.0,0.0,0.0,-28.332946384749043,-168.5000216936718,0.0,0.0
17.36,40.12113509285353,-71.31161926484691,0.0,-9.836681971459239,-1.7999132735687005,0.0,0.0,0.0,-169.63074535088612,-0.8859881150425488,4.842001804279458,0.0,0.0,0.0,-28.20323647596664,-169.63074535088612,0.0,0.0
17.400000000000002,39.7269854679634,-71.37974362137012,0.0,-9.870139808050665,-1.6063437270813454,0.0,0.0,0.0,-170.75628061174908,-0.7870690246556683,4.83612640368852,0.0,0.0,0.0,-28.07352656718425,-170.75628061174908,0.0,0.0
17.44,39.331577599933084,-71.44013867756212,0.0,-9.899531093462775,-1.413960441300857,0.0,0.0,0.0,-171.87136264408406,-0.6800306545538417,4.761084124157044,0.0,0.0,0.0,-27.555853266734776,-171.87136264408406,0.0,0.0
17.48,38.93508092445741,-71.49291724026357,0.0,-9.924599027164545,-1.2256974137219026,0.0,0.0,0.0,-172.9595670292918,-0.5744808295705027,4.65163083355718,0.0,0.0,0.0,-26.85436599365484,-172.9595670292918,0.0,0.0
17.52,38.537664195403366,-71.53825352423107,0.0,-9.94557798270836,-1.0418630379597575,0.0,0.0,0.0,-174.0197119235764,-0.4755623870862907,4.539697286575908,0.0,0.0,0.0,-26.152878720574865,-174.0197119235764,0.0,0.0
17.56,38.139485698416806,-71.57632658754646,0.0,-9.962730827433079,-0.8625511347825178,0.0,0.0,0.0,-175.05179732693782,-0.3831543398378624,4.425550438966058,0.0,0.0,0.0,-25.45139144749488,-175.05179732693782,0.0,0.0
17.6,37.740693303721194,-71.60731903157875,0.0,-9.976315404610641,-0.6878451480736097,0.0,0.0,0.0,-176.05582323937594,-0.2971266233976449,4.309442202832333,0.0,0.0,0.0,-24.749904174414954,-176.05582323937594,0.0,0.0
17.64,37.34142467410242,-71.63141659790293,0.0,-9.986584188245715,-0.51781874346213,0.0,0.0,0.0,-177.0317896608909,-0.21734098266800658,4.191609609297267,0.0,0.0,0.0,-24.04841690133502,-177.0317896608909,0.0,0.0
17.68,36.94180748600507,-71.6488077890233,0.0,-9.993783972396292,-0.35253639964548084,0.0,0.0,0.0,-177.9796965914827,-0.1436518114225523,4.072275010592091,0.0,0.0,0.0,-23.346929628255044,-177.9796965914827,0.0,0.0
17.72,36.541959662396756,-71.65968351257808,0.0,-9.998155593137101,-0.19205399090185432,0.0,0.0,0.0,-178.89954403115132,-0.07590694492700321,3.9516463178716443,0.0,0.0,0.0,-22.645442355175067,-178.89954403115132,0.0,0.0
17.76,36.141989616132214,-71.66423674864564,0.0,-9.99993368129301,-0.036419359434497575,0.0,0.0,0.0,-179.79133197989668,-0.01394840587458654,3.8299172712384486,0.0,0.0,0.0,-21.943955082095133,-179.79133197989668,0.0,0.0
17.8,35.74199650262362,-71.66266223972032,0.0,-9.99934644408286,0.11432712367343799,0.0,0.0,0.0,179.34493956228118,0.042386895945377395,3.707267738649426,0.0,0.0,0.0,-21.242467809015203,179.34493956228118,0.0,0.0
17.84,35.3420704806978,-71.65515620288056,0.0,-9.996615473834161,0.26015200998529714,0.0,0.0,0.0,178.50927059538213,0.0932665096610174,3.583864040568139,0.0,0.0,0.0,-20.540980535935226,178.50927059538213,0.0,0.0
17.88,34.94229298059369,-71.64191606362967,0.0,-9.991955581955622,0.4010282386888784,0.0,0.0,0.0,177.70166111940634,0.1388618342798892,3.4598592974146447,0.0,0.0,0.0,-19.839493262855246,177.70166111940634,0.0,0.0
17.92,34.54273697812539,-71.6231402108542,0.0,-9.98557465638646,0.5369346158820903,0.0,0.0,0.0,176.92211113435377,0.17934755373252007,3.335393797053376,0.0,0.0,0.0,-19.13800598977532,176.92211113435377,0.0,0.0
17.96,34.143467274106776,-71.59902777231206,0.0,-9.97767354077859,0.6678553089156729,0.0,0.0,0.0,176.1706206402244,0.21490111501243778,3.2105953797458797,0.0,0.0,0.0,-18.436518716695385,176.1706206402244,0.0,0.0
18.0,33.74454077820283,-71.56977841003464,0.0,-9.968445933709258,0.7937793564431714,0.0,0.0,0.0,175.44718963701817,0.24570224832351026,3.0855798381789583,0.0,0.0,0.0,-17.73503144361541,175.44718963701817,0.0,0.0
18.04,33.34600679643946,-71.53559213500355,0.0,-9.958078306267188,0.9147001947364028,0.0,0.0,0.0,174.75181812473514,0.2719325280543982,2.9604513303588655,0.0,0.0,0.0,-17.03354417053543,174.75181812473514,0.0,0.0
18.080000000000002,32.94790732166922,-71.49666914044127,0.0,-9.946749836404042,1.030615200739922,0.0,0.0,0.0,174.08450610337536,0.2937749733210919,2.835302803338501,0.0,0.0,0.0,-16.332056897455498,174.08450610337536,0.0,0.0
18.12,32.55027732635368,-71.4532096530381,0.0,-9.934632358494854,1.1415252522598744,0.0,0.0,0.0,173.44525357293875,0.3114136867508162,2.7102164259161943,0.0,0.0,0.0,-15.63056962437557,173.44525357293875,0.0,0.0
18.16,32.153145057084465,-71.40541380142349,0.0,-9.921890326605261,1.2474343056117034,0.0,0.0,0.0,172.83406053342534,0.3250335301233864,2.585264028611248,0.0,0.0,0.0,-14.929082351295587,172.83406053342534,0.0,0.0
18.2,31.75653233032363,-71.35348150117775,0.0,-9.908680790019698,1.3483489909866124,0.0,0.0,0.0,172.2509269848351,0.33481983543827853,2.4605075493824926,0.0,0.0,0.0,-14.227595078215609,172.2509269848351,0.0,0.0
18.240000000000002,31.360454828900824,-71.29761235567126,0.0,-9.895153379642881,1.4442782257384004,0.0,0.0,0.0,171.69585292716812,0.3409581499364567,2.3359994837113955,0.0,0.0,0.0,-13.526107805135679,171.69585292716812,0.0,0.0
18.28,30.96492239885915,-71.2380055720113,0.0,-9.881450303946302,1.5352328457401927,0.0,0.0,0.0,171.1688383604243,0.3436340135746041,2.211783337820598,0.0,0.0,0.0,-12.82462053205575,171.1688383604243,0.0,0.0
18.32,30.56993934629363,-71.17485989137137,0.0,-9.867706353192121,1.6212252549142712,0.0,0.0,0.0,170.66988328460369,0.34303276742495503,2.087894083941652,0.0,0.0,0.0,-12.12313325897577,170.66988328460369,0.0,0.0
18.36,30.175504733875336,-71.10837353297478,0.0,-9.854048910728288,1.7022690929975315,0.0,0.0,0.0,170.19898769970624,0.339339391455707,1.9643586166820914,0.0,0.0,0.0,-11.421645985895788,170.19898769970624,0.0,0.0
18.400000000000002,29.7816126768014,-71.03874415100236,0.0,-9.840597970210771,1.7783789215697712,0.0,0.0,0.0,169.75615160573201,0.3327383701342481,1.841196209671708,0.0,0.0,0.0,-10.720158712815861,169.75615160573201,0.0,0.0
18.44,29.38825263795567,-70.96616880369386,0.0,-9.827466157671289,1.8495699283415852,0.0,0.0,0.0,169.341375002681,0.3234135842874652,1.7184189717909648,0.0,0.0,0.0,-10.018671439735929,169.341375002681,0.0,0.0
18.48,28.995409722107006,-70.89084393391299,0.0,-9.81475875741166,1.9158576496731548,0.0,0.0,0.0,168.9546578905532,0.31154822764957096,1.5960323024006318,0.0,0.0,0.0,-9.317184166655949,168.9546578905532,0.0,0.0
18.52,28.603064969011236,-70.81296536044798,0.0,-9.802573740768628,1.9772577112742173,0.0,0.0,0.0,168.59600026934854,0.2973247465275294,1.4740353451008703,0.0,0.0,0.0,-8.615696893575972,168.59600026934854,0.0,0.0
18.56,28.21119564532007,-70.73272827932153,0.0,-9.791001796855884,2.0337855870186634,0.0,0.0,0.0,168.2654021390671,0.2809248010166987,1.3524214396503331,0.0,0.0,0.0,-7.914209620496041,168.2654021390671,0.0,0.0
18.6,27.81977553523467,-70.65032727438728,0.0,-9.780126364452478,2.085456375794411,0.0,0.0,0.0,167.96286349970887,0.2625292462042386,1.2311785717712977,0.0,0.0,0.0,-7.212722347416111,167.96286349970887,0.0,0.0
18.64,27.428775229873835,-70.56595633649286,0.0,-9.770023664269296,2.1322845962999324,0.0,0.0,0.0,167.6883843512738,0.2423181318045371,1.1102898206552732,0.0,0.0,0.0,-6.511235074336131,167.6883843512738,0.0,0.0
18.68,27.038162415355778,-70.479808890494,0.0,-9.76076273088729,2.1742839996931647,0.0,0.0,0.0,167.44196469376197,0.22047071867901774,0.9897338040650522,0.0,0.0,0.0,-5.8097478012561545,167.44196469376197,0.0,0.0
18.72,26.64790215961974,-70.39207782940699,0.0,-9.752405443722878,2.211467399995837,0.0,0.0,0.0,167.22360452717336,0.19716551070167126,0.8694851210038186,0.0,0.0,0.0,-5.1082605281762214,167.22360452717336,0.0,0.0
18.76,26.25795719803822,-70.30295555499156,0.0,-9.745006556437326,2.2438465221564305,0.0,0.0,0.0,167.03330385150792,0.1725803004411876,0.7495147919898819,0.0,0.0,0.0,-4.406773255096293,167.03330385150792,0.0,0.0
18.8,25.868288217892875,-70.21263402405971,0.0,-9.738613724267829,2.271431867677807,0.0,0.0,0.0,166.87106266676565,0.146892227140221,0.6297906970366313,0.0,0.0,0.0,-3.705285982016312,166.87106266676565,0.0,0.0
18.84,25.47885414180656,-70.12130479980954,0.0,-9.733267528818683,2.2942325977206126,0.0,0.0,0.0,166.73688097294658,0.12027784548178315,0.5102780114916126,0.0,0.0,0.0,-3.003798708936336,166.73688097294658,0.0,0.0
18.88,25.089612410241163,-70.02915910748686,0.0,-9.729001499911082,2.3122564336007247,0.0,0.0,0.0,166.63075877005076,0.09291320364174416,0.3909396399362187,0.0,0.0,0.0,-2.3023114358564034,166.63075877005076,0.0,0.0
18.92,24.70051926318609,-69.93638789368023,0.0,-9.725842134149978,2.3255095746078958,0.0,0.0,0.0,166.55269605807808,0.06497392913469917,0.27173664838859296,0.0,0.0,0.0,-1.6008241627764745,166.55269605807808,0.0,0.0
18.96,24.311530021174672,-69.8431818885579,0.0,-9.723808909926026,2.3339966330830983,0.0,0.0,0.0,166.50269283702863,0.03663532096774716,0.1526286950866807,0.0,0.0,0.0,-0.8993368896964941,166.50269283702863,0.0,0.0
19.0,23.92259936577552,-69.7497316703573,0.0,-9.722914298629858,2.337720586703863,0.0,0.0,0.0,166.48074910690238,0.008072446622884049,0.033574460156177884,0.0,0.0,0.0,-0.1978496166165136,166.48074910690238,0.0,0.0
19.04,23.533681619713864,-69.65622773143977,0.0,-9.723163771915091,2.3366827479394594,0.0,0.0,0.0,166.48686486769932,-0.02053975760643966,-0.08546792551062471,0.0,0.0,0.0,0.5036376564634152,166.48686486769932,0.0,0.0
19.080000000000002,23.144731026783205,-69.56286054522386,0.0,-9.7245558049053,2.3308827506510577,0.0,0.0,0.0,166.52104011941947,-0.04902638439556918,-0.2045404518242212,0.0,0.0,0.0,1.205124929543344,166.52104011941947,0.0,0.0
19.12,22.755702031710772,-69.46982063331217,0.0,-9.727081875299023,2.320318553826012,0.0,0.0,0.0,166.58327486206278,-0.07721245275470702,-0.3236848011663186,0.0,0.0,0.0,1.9066122026233243,166.58327486206278,0.0,0.0
19.16,22.366549560140722,-69.37729863212601,0.0,-9.730726458385606,2.3049864624492526,0.0,0.0,0.0,166.67356909562932,-0.10492280644937341,-0.4429419198063806,0.0,0.0,0.0,2.608099475703305,166.67356909562932,0.0,0.0
19.2,21.977229298897274,-69.28548535836222,0.0,-9.735467018043435,2.2848811655288515,0.0,0.0,0.0,166.79192282011905,-0.13198201494495848,-0.5623515887200017,0.0,0.0,0.0,3.3095867487832336,166.79192282011905,0.0,0.0
19.240000000000002,21.5876979766862,-69.19457187258534,0.0,-9.741273993850974,2.259995791306413,0.0,0.0,0.0,166.93833603553196,-0.15821427834766474,-0.6819519934738882,0.0,0.0,0.0,4.011074021863163,166.93833603553196,0.0,0.0
19.28,21.19791364538664,-69.10474954026704,0.0,-9.748110784499968,2.2303219796960803,0.0,0.0,0.0,167.11280874186812,-0.18344333781822184,-0.8017792928598387,0.0,0.0,0.0,4.712561294943143,167.11280874186812,0.0,0.0
19.32,20.80783596207638,-69.01621008958243,0.0,-9.755933727759317,2.1958499720081486,0.0,0.0,0.0,167.31534093912742,-0.20749239294021382,-0.9218671859843298,0.0,0.0,0.0,5.414048568023123,167.31534093912742,0.0,0.0
19.36,20.417426471922294,-68.92914566527072,0.0,-9.764692077297608,2.1565687180243804,0.0,0.0,0.0,167.54593262730992,-0.23018402753152908,-1.0422464775509954,0.0,0.0,0.0,6.115535841103052,167.54593262730992,0.0,0.0
19.400000000000002,20.026648892054826,-68.84374887786451,0.0,-9.774327976731852,2.1124660005020215,0.0,0.0,0.0,167.80458380641562,-0.25134014539517424,-1.1629446411104747,0.0,0.0,0.0,6.817023114182981,167.80458380641562,0.0,0.0
19.44,19.63546939652898,-68.76021284758886,0.0,-9.784776431330135,2.063528577191579,0.0,0.0,0.0,168.09129447644457,-0.2707819175142977,-1.2839853800959968,0.0,0.0,0.0,7.518510387262961,168.09129447644457,0.0,0.0
19.48,19.24385690245609,-68.67873124222805,0.0,-9.795965277856153,2.00974234045975,0.0,0.0,0.0,168.40606463739667,-0.288329742205519,-1.4053881865136764,0.0,0.0,0.0,8.219997660342939,168.40606463739667,0.0,0.0
19.52,18.851783357369925,-68.59949830825359,0.0,-9.80781515310444,1.9510924946129304,0.0,0.0,0.0,168.748894289272,-0.30380321975424474,-1.5271678972137712,0.0,0.0,0.0,8.92148493342287,168.748894289272,0.0,0.0
19.56,18.459224027867375,-68.52270889450362,0.0,-9.820239461736188,1.8875637510185872,0.0,0.0,0.0,169.11978343207045,-0.3170211430652875,-1.6493342477330684,0.0,0.0,0.0,9.622972206502803,169.11978343207045,0.0,0.0
19.6,18.066157789538796,-68.44855846770011,0.0,-9.83314434408707,1.8191405411205746,0.0,0.0,0.0,169.51873206579214,-0.32780150587142726,-1.7718914237694428,0.0,0.0,0.0,10.324459479582776,169.51873206579214,0.0,0.0
19.64,17.6725678189804,-68.37724086685813,0.0,-9.846336075229264,1.7463292626646312,0.0,0.0,0.0,169.942702600785,-0.32175773391852686,-1.8141680670985951,0.0,0.0,0.0,10.55663475002153,169.942702600785,0.0,0.0
19.68,17.27846643456769,-68.30880531333202,0.0,-9.858501108582002,1.6762923050850733,0.0,0.0,0.0,170.3499939824753,-0.28694896890158866,-1.6875855836367428,0.0,0.0,0.0,9.807934334493856,170.3499939824753,0.0,0.0
19.72,16.883905580770918,-68.24306982616544,0.0,-9.869327095767304,1.6113294749222788,0.0,0.0,0.0,170.72733734754448,-0.25477287782624136,-1.5604734509796134,0.0,0.0,0.0,9.059233918966125,170.72733734754448,0.0,0.0
19.76,16.48893676547602,-68.17983103490272,0.0,-9.878915427864314,1.5514605921854552,0.0,0.0,0.0,171.0747326959926,-0.22503342026575696,-1.4328988686183282,0.0,0.0,0.0,8.310533503438398,171.0747326959926,0.0,0.0
19.8,16.093607598138313,-68.11888482832354,0.0,-9.887359626168278,1.4967029173545023,0.0,0.0,0.0,171.39218002781956,-0.19753318201455988,-1.3049226977732356,0.0,0.0,0.0,7.5618330879107205,171.39218002781956,0.0,0.0
19.84,15.697962105619048,-68.06002645188859,0.0,-9.89474529123671,1.4470713947656306,0.0,0.0,0.0,171.6796793430254,-0.17207357126012218,-1.1765999695185307,0.0,0.0,0.0,6.813132672383045,171.6796793430254,0.0,0.0
19.88,15.30204104990904,-68.00305059585773,0.0,-9.901150059351405,1.4025788755737336,0.0,0.0,0.0,171.9372306416102,-0.14845499351084093,-1.0479803976868063,0.0,0.0,0.0,6.064432256855316,171.9372306416102,0.0,0.0
19.92,14.905882247459182,-67.94775147490104,0.0,-9.90664356558352,1.363236320115715,0.0,0.0,0.0,172.16483392357384,-0.12647700713171622,-0.9191088957997562,0.0,0.0,0.0,5.315731841327588,172.16483392357384,0.0,0.0
19.96,14.509520889868627,-67.89392290002979,0.0,-9.911287412723425,1.3290529795272266,0.0,0.0,0.0,172.36248918891638,-0.10593846136028096,-0.7900260973621556,0.0,0.0,0.0,4.56703142579991,172.36248918891638,0.0,0.0
20.0,14.112989865709638,-67.84135834367987,0.0,-9.915135145412245,1.3000365564902008,0.0,0.0,0.0,172.5301964376378,-0.08663761869232699,-0.660768878938514,0.0,0.0,0.0,3.8183310102722348,172.5301964376378,0.0,0.0
20.04,13.716320083293178,-67.78985099878429,0.0,-9.918232228887947,1.2761933450102427,0.0,0.0,0.0,172.66795566973815,-0.0683722635409525,-0.5313708855051682,0.0,0.0,0.0,3.0696305947445057,172.66795566973815,0.0,0.0
20.080000000000002,13.319540794201004,-67.73919383267543,0.0,-9.920616031835145,1.2575283491418763,0.0,0.0,0.0,172.7757668852174,-0.05093979908376359,-0.4018630576349985,0.0,0.0,0.0,2.3209301792167767,172.7757668852174,0.0,0.0
20.12,12.922679917428948,-67.68917963666047,0.0,-9.922315812904614,1.2440453805963245,0.0,0.0,0.0,172.8536300840755,-0.034137334222093633,-0.27227416012744304,0.0,0.0,0.0,1.5722297636891007,172.8536300840755,0.0,0.0
20.16,12.525764364002095,-67.63960107211571,0.0,-9.923352710545574,1.2357471351808997,0.0,0.0,0.0,172.9015452663125,-0.01776176258314992,-0.14263131174304994,0.0,0.0,0.0,0.823529348161424,172.9015452663125,0.0,0.0
